File: Cell 4.CSV
Data Point,Date Time,Test Time (s),Step Time (s),Cycle Index,Step Index,Current (A),Voltage (V),Power (W),Charge Capacity (Ah),Discharge Capacity (Ah),Charge Energy (Wh),Discharge Energy (Wh),ACR (Ohm),dV/dt (V/s),Internal Resistance (Ohm),dQ/dV (Ah/V),dV/dQ (V/Ah)
1,	09/22/2022 15:27:13.803,60.0002,60.0001,1,1,0,0.1280746,0,0,0,0,0,,-1.75348e-06,,,
64,	09/22/2022 16:27:43.844,3690.04,90.0004,1,2,0.001182434,1.499969,0.00177361,0.0001271141,0,0.0001700265,0,,1.26637e-05,,0,
127,	09/22/2022 16:59:13.845,5580.042,1980,1,2,0.0000786598,1.500081,0.000117996,0.0002343087,0,0.000330819,0,,-4.26714e-06,,0,
190,	09/22/2022 17:34:13.885,7680.08,480.0002,1,3,0,1.43251,0,0.0002625719,0,0.000373214,0,,-9.31831e-05,,0,
253,	09/22/2022 18:37:13.885,11460.1,4260,1,3,0,1.273418,0,0.0002625719,0,0.000373214,0,,-2.38075e-05,,0,
316,	09/22/2022 19:40:13.885,15240.1,8040,1,3,0,1.202806,0,0.0002625719,0,0.000373214,0,,-7.34976e-06,,0,
379,	09/22/2022 20:43:13.886,19020.1,11820,1,3,0,1.155173,0,0.0002625719,0,0.000373214,0,,-4.93935e-06,,0,
442,	09/22/2022 21:46:13.885,22800.1,15600,1,3,0,1.118579,0,0.0002625719,0,0.000373214,0,,-1.43433e-05,,0,
505,	09/22/2022 22:49:13.885,26580.1,19380,1,3,0,1.088315,0,0.0002625719,0,0.000373214,0,,-1.95566e-06,,0,
568,	09/22/2022 23:52:13.885,30360.1,23160,1,3,0,1.062007,0,0.0002625719,0,0.000373214,0,,-3.9906e-06,,0,
631,	09/23/2022 00:55:13.885,34140.1,26940,1,3,0,1.038469,0,0.0002625719,0,0.000373214,0,,-1.0472e-06,,0,
694,	09/23/2022 01:58:13.886,37920.1,30720,1,3,0,1.016789,0,0.0002625719,0,0.000373214,0,,1.08654e-06,,0,
757,	09/23/2022 03:01:13.885,41700.1,34500,1,3,0,0.9967098,0,0.0002625719,0,0.000373214,0,,-8.71201e-06,,0,
820,	09/23/2022 04:04:13.885,45480.1,38280,1,3,0,0.977972,0,0.0002625719,0,0.000373214,0,,-7.64612e-06,,0,
883,	09/23/2022 05:07:13.886,49260.1,42060.001,1,3,0,0.9603176,0,0.0002625719,0,0.000373214,0,,-5.0576e-06,,0,
946,	09/23/2022 05:47:45.210,51691.4,1290,1,5,0.04001898,3.06321,0.122587,0.01460014,0,0.04167141,0,,0.000125483,,,
1009,	09/23/2022 06:18:47.465,53553.7,30.001,1,7,0,3.148883,0,0.03496393,0,0.1054315,0,,-0.000325234,,,
1072,	09/23/2022 06:49:47.506,55413.7,90.0002,1,8,0.03998166,3.114342,0.124517,0.03596327,0,0.108526,0,,0.000324073,,0.0327064,36.7229
1135,	09/23/2022 07:21:17.507,57303.7,1980.001,1,8,0.03998405,3.285928,0.131385,0.05695074,0,0.1764628,0,,1.53702e-05,,,
1198,	09/23/2022 07:52:47.507,59193.7,3870.001,1,8,0.03998202,3.323224,0.132869,0.07793847,0,0.2457536,0,,1.46185e-05,,,
1261,	09/23/2022 08:24:17.506,61083.7,5760,1,8,0.03997928,3.362072,0.134413,0.09892603,0,0.3159354,0,,1.82172e-05,,,
1324,	09/23/2022 08:55:47.507,62973.7,7650,1,8,0.03998083,3.376044,0.134977,0.1199132,0,0.3866812,0,,8.06002e-06,,0,
1387,	09/23/2022 09:27:17.507,64863.7,9540.001,1,8,0.03997928,3.383345,0.135264,0.1409,0,0.457608,0,,-8.49526e-06,,,
1450,	09/23/2022 09:58:47.506,66753.7,11430,1,8,0.03998005,3.3941,0.135696,0.1618873,0,0.5287154,0,,1.7424e-05,,0,
1513,	09/23/2022 10:30:17.506,68643.7,13320,1,8,0.03998202,3.418253,0.136669,0.1828754,0,0.6001846,0,,9.48356e-06,,,
1576,	09/23/2022 11:01:47.507,70533.7,15210,1,8,0.03998357,3.436328,0.137397,0.2038635,0,0.6721154,0,,-5.13701e-06,,0,
1639,	09/23/2022 11:33:17.507,72423.7,17100,1,8,0.03998464,3.477579,0.13905,0.2248515,0,0.7445823,0,,1.63582e-05,,,
1702,	09/23/2022 12:03:48.166,74254.4,270.0008,1,10,-0.03999966,3.290037,-0.1316,0.2421813,0.002999479,0.8058977,0.01000348,,-0.000129383,,0.0789689,
1765,	09/23/2022 12:35:18.166,76144.4,2160,1,10,-0.04000032,3.271989,-0.130881,0.2421813,0.02399627,0.8058977,0.07878441,,-1.40658e-05,,,
1828,	09/23/2022 13:06:48.166,78034.4,4050,1,10,-0.04000098,3.25265,-0.130109,0.2421813,0.04499274,0.8058977,0.1473285,,-1.66337e-05,,,
1891,	09/23/2022 13:38:18.166,79924.4,5940,1,10,-0.03999817,3.23696,-0.129472,0.2421813,0.06598794,0.8058977,0.2154024,,1.8175e-06,,0,0
1954,	09/23/2022 14:09:48.166,81814.4,7830,1,10,-0.04000014,3.230577,-0.129224,0.2421813,0.08698421,0.8058977,0.2833019,,-1.90847e-05,,0,
2017,	09/23/2022 14:41:18.166,83704.4,9720,1,10,-0.03999925,3.217142,-0.128683,0.2421813,0.1079812,0.8058977,0.3510182,,-3.59582e-06,,,
2080,	09/23/2022 15:12:01.521,85547.7,540.0017,1,7,0,3.259992,0,0,0.00000005888947,0.8058977,0.3974783,,1.05901e-05,,,
2143,	09/23/2022 15:43:01.560,87407.757,600,1,8,0.03998309,3.344728,0.133733,0.006662794,0.00000005888947,0.8280926,0.3974783,,4.10511e-05,,0.316105,0
2206,	09/23/2022 16:14:31.561,89297.8,2490,1,8,0.03998291,3.361942,0.13442,0.0276502,0.00000005888947,0.898546,0.3974783,,-8.3768e-06,,,
2269,	09/23/2022 16:46:01.560,91187.757,4380,1,8,0.03998083,3.36785,0.134649,0.04863787,0.00000005888947,0.9691615,0.3974783,,6.16441e-06,,0,0
2332,	09/23/2022 17:17:31.561,93077.8,6270,1,8,0.03998017,3.383919,0.13529,0.06962549,0.00000005888947,1.039971,0.3974783,,4.86e-06,,0,0
2395,	09/23/2022 17:49:01.561,94967.8,8160,1,8,0.03998417,3.403275,0.136077,0.09061351,0.00000005888947,1.111276,0.3974783,,2.44173e-05,,,0
2458,	09/23/2022 18:20:31.560,96857.8,10050,1,8,0.03998244,3.414108,0.136504,0.1116012,0.00000005888947,1.182788,0.3974783,,2.85645e-05,,0,
2521,	09/23/2022 18:51:15.163,98701.4,300.0016,1,10,-0.03997892,3.287498,-0.131431,0.128741,0.003331142,1.242082,0.408579,,-9.10924e-05,,,
2584,	09/23/2022 19:22:45.162,100591,2190,1,10,-0.03998172,3.273105,-0.130864,0.128741,0.0243183,1.242082,0.4773436,,-1.1854e-07,,0,0
2647,	09/23/2022 19:54:15.162,102481,4080,1,10,-0.03998196,3.253125,-0.130066,0.128741,0.04530538,1.242082,0.5458729,,3.16098e-07,,0,0
2710,	09/23/2022 20:25:45.163,104371,5970,1,10,-0.03998196,3.237971,-0.12946,0.128741,0.06629276,1.242082,0.6139385,,-3.01856e-05,,,
2773,	09/23/2022 20:57:15.162,106261,7860,1,10,-0.03998309,3.231881,-0.129221,0.128741,0.08728028,1.242082,0.6818331,,9.87797e-06,,0,
2836,	09/23/2022 21:28:45.162,108151,9750,1,10,-0.03998089,3.218918,-0.128695,0.128741,0.1082669,1.242082,0.7495451,,-2.5999e-05,,,
2899,	09/23/2022 21:59:16.362,109983,390.0001,1,7,0,3.257241,0,0,0.00000002221339,1.242082,0.800912,,9.99725e-06,,0,
2962,	09/23/2022 22:30:16.406,111843,450.0009,1,8,0.03999847,3.336887,0.13347,0.004999072,0.00000002221339,1.258703,0.800912,,5.4208e-05,,0,
3025,	09/23/2022 23:01:46.406,113733,2340,1,8,0.04000217,3.360318,0.13442,0.02599549,0.00000002221339,1.329118,0.800912,,-8.41673e-06,,0,
3088,	09/23/2022 23:33:16.406,115623,4230.001,1,8,0.0399999,3.365649,0.134626,0.04699232,0.00000002221339,1.399728,0.800912,,-7.19164e-06,,0,
3151,	09/24/2022 00:04:46.405,117513,6120,1,8,0.0400002,3.378872,0.135156,0.06798844,0.00000002221339,1.470502,0.800912,,1.54109e-05,,,
3214,	09/24/2022 00:36:16.405,119403,8010,1,8,0.04000062,3.401937,0.13608,0.08898514,0.00000002221339,1.541765,0.800912,,1.0195e-05,,0,0
3277,	09/24/2022 01:07:46.405,121293,9900,1,8,0.0399977,3.41118,0.136439,0.109982,0.00000002221339,1.613271,0.800912,,5.61083e-06,,0,0
3340,	09/24/2022 01:38:29.724,123136,210.0009,1,10,-0.04001236,3.301911,-0.132117,0.1281263,0.002333773,1.675823,0.8087326,,-0.00019819,,0.0457307,27.5469
3403,	09/24/2022 02:09:59.724,125026,2100,1,10,-0.04001403,3.274024,-0.131007,0.1281263,0.02333799,1.675823,0.8775837,,-1.41061e-05,,,
3466,	09/24/2022 02:41:29.725,126916,3990.001,1,10,-0.04001552,3.255359,-0.130265,0.1281263,0.04434256,1.675823,0.9462033,,-2.29568e-05,,0,
3529,	09/24/2022 03:12:59.724,128806,5880,1,10,-0.04001433,3.23887,-0.129601,0.1281263,0.0653473,1.675823,1.014356,,1.0985e-05,,0,
3592,	09/24/2022 03:44:29.724,130695.921,7770,1,10,-0.0400157,3.233293,-0.129382,0.1281263,0.08635228,1.675823,1.082333,,1.93611e-05,,,0
3655,	09/24/2022 04:15:59.724,132585.921,9660,1,10,-0.04001474,3.221322,-0.1289,0.1281263,0.1073565,1.675823,1.150142,,-2.89627e-05,,0,0
3718,	09/24/2022 04:46:47.238,134433,180.0002,1,7,0,3.252945,0,0,0.00000002223027,1.675823,1.209654,,1.5251e-05,,,
3781,	09/24/2022 05:17:47.278,136293,240.0002,1,8,0.03999865,3.325416,0.133012,0.002666135,0.00000002223027,1.684667,1.209654,,3.14912e-05,,0,0
3844,	09/24/2022 05:49:17.279,138183,2130,1,8,0.03999954,3.358739,0.134348,0.02366218,0.00000002223027,1.754985,1.209654,,2.27197e-05,,,
3907,	09/24/2022 06:20:47.278,140073,4020,1,8,0.03999895,3.36382,0.134549,0.04465885,0.00000002223027,1.825561,1.209654,,-2.1259e-05,,0,
3970,	09/24/2022 06:52:17.278,141963,5910,1,8,0.03999954,3.373903,0.134955,0.0656558,0.00000002223027,1.896279,1.209654,,-7.5864e-06,,,
4033,	09/24/2022 07:23:47.278,143853,7800,1,8,0.03999853,3.400642,0.136021,0.08665213,0.00000002223027,1.967432,1.209654,,-2.33137e-06,,,
4096,	09/24/2022 07:55:17.278,145743,9690,1,8,0.03999954,3.408086,0.136322,0.1076484,0.00000002223027,2.038898,1.209654,,-5.09707e-06,,,
4159,	09/24/2022 08:26:36.772,147623,11569.5,1,8,0.03999805,3.65001,0.145993,0.1285278,0.00000002223027,2.11069,1.209654,,0.00170305,1.02413,0.0070311,141.501
4222,	09/24/2022 08:57:36.857,149483,1860,1,10,-0.04001474,3.275506,-0.131069,0.1285278,0.02067241,2.11069,1.277608,,-2.49717e-05,,0,
4285,	09/24/2022 09:29:06.856,151373,3750,1,10,-0.04001743,3.259926,-0.130454,0.1285278,0.04167831,2.11069,1.346289,,1.8967e-06,,0,
4348,	09/24/2022 10:00:36.857,153263,5640,1,10,-0.04001784,3.240479,-0.129677,0.1285278,0.06268384,2.11069,1.414506,,-1.56863e-05,,0,
4411,	09/24/2022 10:32:06.857,155153,7530,1,10,-0.04001969,3.234994,-0.129463,0.1285278,0.08368856,2.11069,1.482513,,-2.44204e-05,,0,0
4474,	09/24/2022 11:03:36.856,157043,9420,1,10,-0.04001659,3.225014,-0.129054,0.1285278,0.104694,2.11069,1.550379,,-9.00833e-06,,,0
4537,	09/24/2022 11:35:06.857,158933,11310,1,10,-0.04001695,3.202016,-0.128135,0.1285278,0.1256991,2.11069,1.617899,,-2.07058e-05,,0,
4600,	09/24/2022 12:05:55.874,160782,1710.001,1,7,0,3.261605,0,0,0.00000002000832,2.11069,1.622844,,1.26047e-05,,0,
4663,	09/24/2022 12:36:55.917,162642,1770.001,1,8,0.03999883,3.356707,0.134264,0.01966194,0.00000002000832,2.176392,1.622844,,-1.63194e-05,,,
4726,	09/24/2022 13:08:25.916,164532,3660,1,8,0.0399965,3.361901,0.134464,0.04065651,0.00000002000832,2.246925,1.622844,,1.43028e-05,,0,0
4789,	09/24/2022 13:39:55.916,166422,5550,1,8,0.03999805,3.36964,0.134779,0.06165199,0.00000002000832,2.31758,1.622844,,2.16543e-05,,,
4852,	09/24/2022 14:11:25.916,168312,7440,1,8,0.03999847,3.39783,0.135908,0.08264709,0.00000002000832,2.388567,1.622844,,0,,,
4915,	09/24/2022 14:42:55.916,170202,9330,1,8,0.04000252,3.405031,0.13621,0.1036422,0.00000002000832,2.459987,1.622844,,7.62598e-06,,,
4978,	09/24/2022 15:14:25.917,172092,11220,1,8,0.03999817,3.444265,0.137764,0.1246387,0.00000002000832,2.531693,1.622844,,0.000115745,,,
5041,	09/24/2022 15:45:19.752,173946,1440,1,10,-0.04000032,3.277195,-0.131089,0.1292351,0.01599778,2.547777,1.675489,,7.42872e-06,,,
5104,	09/24/2022 16:16:49.752,175836,3330,1,10,-0.03999782,3.266062,-0.130635,0.1292351,0.03699342,2.547777,1.744206,,-3.91151e-05,,0,0
5167,	09/24/2022 16:48:19.752,177725.949,5220,1,10,-0.03999972,3.242768,-0.12971,0.1292351,0.05798855,2.547777,1.812501,,-8.49526e-06,,,0
5230,	09/24/2022 17:19:49.752,179616,7110,1,10,-0.03999835,3.236724,-0.129464,0.1292351,0.07898404,2.547777,1.880516,,-1.49745e-05,,,0
5293,	09/24/2022 17:51:19.753,181506,9000,1,10,-0.03999996,3.229295,-0.129172,0.1292351,0.09997914,2.547777,1.948404,,-2.106e-05,,,
5356,	09/24/2022 18:22:49.752,183395.949,10890,1,10,-0.03999662,3.209177,-0.128356,0.1292351,0.120975,2.547777,2.01602,,-1.60815e-05,,,0
5419,	09/24/2022 18:53:33.016,185239,1200,1,7,0,3.259654,0,0,0.00000002111014,2.547777,2.038918,,-2.92415e-06,,,
5482,	09/24/2022 19:24:33.057,187099,1260,1,8,0.03999907,3.350957,0.134035,0.01399693,0.00000002111014,2.594463,2.038918,,2.59202e-05,,0,
5545,	09/24/2022 19:56:03.057,188989,3150,1,8,0.04000235,3.360171,0.134415,0.03499336,0.00000002111014,2.664952,2.038918,,-4.42515e-06,,,
5608,	09/24/2022 20:27:33.057,190879,5040,1,8,0.04000032,3.36601,0.134641,0.05598934,0.00000002111014,2.735557,2.038918,,8.33673e-06,,,0
5671,	09/24/2022 20:59:03.057,192769,6930,1,8,0.04000002,3.385248,0.13541,0.07698582,0.00000002111014,2.806376,2.038918,,6.91469e-06,,0.549951,1.50469
5734,	09/24/2022 21:30:33.057,194659,8820,1,8,0.04000264,3.402451,0.136107,0.09798139,0.00000002111014,2.877718,2.038918,,1.39477e-05,,,0
5797,	09/24/2022 22:02:03.058,196549,10710,1,8,0.03999931,3.417478,0.136697,0.118977,0.00000002111014,2.949264,2.038918,,-7.90244e-07,,0,0
5860,	09/24/2022 22:33:00.589,198407,900.001,1,11,0,3.391553,0,0.1296132,0.00000002111014,2.986022,2.038918,,-4.36613e-05,,,
5923,	09/24/2022 23:04:30.588,200296.785,2790,1,11,0,3.3646,0,0.1296132,0.00000002111014,2.986022,2.038918,,1.34745e-05,,,
5986,	09/24/2022 23:36:00.589,202187,4680,1,11,0,3.35643,0,0.1296132,0.00000002111014,2.986022,2.038918,,-2.44159e-05,,,
6049,	09/25/2022 00:07:30.588,204077,6570,1,11,0,3.352364,0,0.1296132,0.00000002111014,2.986022,2.038918,,-9.16744e-06,,,
6112,	09/25/2022 00:39:00.588,205967,8460,1,11,0,3.350057,0,0.1296132,0.00000002111014,2.986022,2.038918,,1.41463e-05,,,
6175,	09/25/2022 01:10:30.589,207857,10350.001,1,11,0,3.348143,0,0.1296132,0.00000002111014,2.986022,2.038918,,8.21861e-06,,,
6238,	09/25/2022 01:41:30.629,209717,1410,1,12,-0.04001552,3.274904,-0.131047,0.1296132,0.01567124,2.986022,2.090286,,6.44049e-06,,,
6301,	09/25/2022 02:13:00.630,211607,3300,1,12,-0.04001617,3.260834,-0.130486,0.1296132,0.03667638,2.986022,2.158959,,1.81758e-06,,,
6364,	09/25/2022 02:44:30.630,213497,5190,1,12,-0.04001552,3.242103,-0.129734,0.1296132,0.05768128,2.986022,2.227215,,-3.95148e-08,,0,
6427,	09/25/2022 03:16:00.629,215387,7080,1,12,-0.04001445,3.236941,-0.129524,0.1296132,0.07868667,2.986022,2.29526,,-2.20072e-05,,,
6490,	09/25/2022 03:47:30.630,217277,8970,1,12,-0.0400179,3.228979,-0.129217,0.1296132,0.09969211,2.986022,2.363181,,-3.04209e-06,,,
6553,	09/25/2022 04:19:00.629,219167,10860,1,12,-0.04001552,3.209361,-0.128424,0.1296132,0.1206984,2.986022,2.430831,,-7.78313e-06,,0,
6616,	09/25/2022 04:50:30.629,221057,12750,1,12,-0.0400179,3.178953,-0.127215,0.1296132,0.1417036,2.986022,2.497958,,-2.35896e-05,,0,
6679,	09/25/2022 05:22:00.629,222947,14640,1,12,-0.04001522,3.14158,-0.125711,0.1296132,0.162708,2.986022,2.564279,,-2.07451e-05,,0,
6742,	09/25/2022 05:53:30.629,224837,16530,1,12,-0.04001677,2.835563,-0.11347,0.1296132,0.1837134,2.986022,2.628439,,-0.00048027,,0.0253839,38.2455
6805,	09/25/2022 07:18:24.981,229931,1080,1,17,0.1000066,3.348726,0.334895,0.0299954,0.00000000003523958,3.083807,2.640823,,4.02244e-05,,,0
6868,	09/25/2022 07:49:54.982,231821,2970,1,17,0.1000047,3.421942,0.34221,0.08248726,0.00000000003523958,3.262155,2.640823,,2.54063e-05,,2.90285,
6931,	09/25/2022 08:21:24.981,233711,4860,1,17,0.1000043,3.455176,0.345532,0.13498,0.00000000003523958,3.442414,2.640823,,3.46565e-05,,,
6994,	09/25/2022 08:52:54.981,235601,6750,1,17,0.0873671,3.650009,0.318891,0.1874447,0.00000000003523958,3.625347,2.640823,,-1.21706e-05,,0.0157373,58.106
7057,	09/25/2022 09:23:36.540,237443,690.0001,1,19,-0.1000105,3.210944,-0.321128,0.1914738,0.01916534,3.640054,2.702579,,-1.42245e-06,,,
7120,	09/25/2022 09:55:06.540,239333,2580,1,19,-0.1000051,3.176628,-0.317679,0.1914738,0.07165994,3.640054,2.870161,,-1.99527e-05,,,0
7183,	09/25/2022 10:26:36.540,241222.737,4470,1,19,-0.1000032,3.141486,-0.314159,0.1914738,0.1241536,3.640054,3.036165,,-1.61202e-05,,,
7246,	09/25/2022 10:58:06.541,243113,6360,1,19,-0.1000029,2.979218,-0.29793,0.1914738,0.1766481,3.640054,3.198553,,-0.000520198,,0.0609713,15.5039
7309,	09/25/2022 11:28:00.408,244907,780.0001,2,17,0.09999126,3.334996,0.33347,0.02166073,0.000000000001092752,0.07012168,0.00000000000309507,,2.58809e-05,,0,0
7372,	09/25/2022 11:59:30.409,246797,2670,2,17,0.09999233,3.417611,0.341735,0.07414732,0.000000000001092752,0.2477703,0.00000000000309507,,8.02071e-06,,,0
7435,	09/25/2022 12:31:00.409,248687,4560,2,17,0.09998816,3.443897,0.344349,0.1266311,0.000000000001092752,0.4276631,0.00000000000309507,,3.72983e-05,,,0
7498,	09/25/2022 13:02:30.409,250577,6450,2,17,0.09998769,3.505389,0.350496,0.1791144,0.000000000001092752,0.6096591,0.00000000000309507,,0.00014145,,0.228599,
7561,	09/25/2022 13:33:08.358,252415,690.0001,2,19,-0.1000251,3.211474,-0.321228,0.1891846,0.01916731,0.6456205,0.06178004,,-1.4264e-05,,0,
7624,	09/25/2022 14:04:38.359,254305,2580.001,2,19,-0.1000239,3.177104,-0.317786,0.1891846,0.07167004,0.6456205,0.229411,,-4.18815e-06,,,0
7687,	09/25/2022 14:36:08.358,256195,4470,2,19,-0.1000203,3.14254,-0.314318,0.1891846,0.1241741,0.6456205,0.3954901,,-2.76583e-05,,0.956545,
7750,	09/25/2022 15:07:38.358,258085,6360,2,19,-0.1000243,2.983616,-0.298434,0.1891846,0.1766782,0.6456205,0.557988,,-0.000429389,,0.0616541,15.7786
7813,	09/25/2022 15:37:35.353,259882,780.0009,3,17,0.09999031,3.33439,0.333407,0.02166051,0.00000000002358522,0.0700552,0.00000000006657846,,2.16121e-05,,,0
7876,	09/25/2022 16:09:05.353,261772,2670,3,17,0.0999909,3.417206,0.34169,0.07414551,0.00000000002358522,0.2476618,0.00000000006657846,,-1.45792e-05,,,
7939,	09/25/2022 16:40:35.352,263661.549,4560,3,17,0.0999912,3.442579,0.344228,0.1266294,0.00000000002358522,0.4275199,0.00000000006657846,,4.34243e-05,,0,
8002,	09/25/2022 17:12:05.353,265552,6450,3,17,0.09999061,3.503213,0.350288,0.179113,0.00000000002358522,0.6094646,0.00000000006657846,,0.000105103,,0.266969,3.21706
8065,	09/25/2022 17:42:57.443,267404,750.0016,3,19,-0.1000044,3.210947,-0.321109,0.1889152,0.02083034,0.6444201,0.06713242,,-1.20916e-05,,,
8128,	09/25/2022 18:14:27.442,269294,2640,3,19,-0.1000041,3.176844,-0.317697,0.1889152,0.07332398,0.6444201,0.2346921,,-6.75631e-06,,,
8191,	09/25/2022 18:45:57.442,271184,4530,3,19,-0.1000026,3.141348,-0.314143,0.1889152,0.1258186,0.6444201,0.4007155,,-1.64382e-05,,,
8254,	09/25/2022 19:17:27.443,273074,6420,3,19,-0.1000046,2.953599,-0.295373,0.1889152,0.1783131,0.6444201,0.5629378,,-0.000604634,,0.049429,19.9937
8317,	09/25/2022 19:47:23.346,274870,840.0009,4,17,0.09999275,3.336307,0.333607,0.02332708,0,0.07556552,0,,4.99043e-05,,,
8380,	09/25/2022 20:18:53.346,276760,2730,4,17,0.09998941,3.417191,0.341683,0.07581114,0,0.2532762,0,,1.55679e-05,,0,0
8443,	09/25/2022 20:50:23.346,278650,4620.001,4,17,0.09998959,3.443665,0.344331,0.1282948,0,0.4331475,0,,1.98353e-05,,0,0.890547
8506,	09/25/2022 21:21:53.346,280540,6510,4,17,0.09998614,3.511405,0.351092,0.1807781,0,0.6151619,0,,0.000147321,,0.182943,
8569,	09/25/2022 21:52:48.693,282395,840.0009,4,19,-0.1000188,3.209823,-0.321043,0.1886738,0.02333446,0.6433945,0.07518103,,-2.73413e-05,,2.21755,
8632,	09/25/2022 22:24:18.693,284285,2730.001,4,19,-0.1000228,3.176366,-0.317709,0.1886738,0.07583813,0.6433945,0.2426981,,-8.57479e-06,,,
8695,	09/25/2022 22:55:48.693,286175,4620,4,19,-0.1000214,3.138808,-0.313948,0.1886738,0.1283423,0.6433945,0.4086842,,-4.72147e-05,,,
8758,	09/25/2022 23:27:18.693,288065,6510.001,4,19,-0.1000224,2.88971,-0.289036,0.1886738,0.1808463,0.6433945,0.5703913,,-0.000846028,,0.0371842,27.1052
8821,	09/25/2022 23:57:06.881,289853,930.0002,5,23,0.1000073,3.339395,0.333964,0.02583057,0.000000000007145933,0.08388937,0.0000000000200962,,3.09763e-05,,,1.34593
8884,	09/26/2022 00:28:36.881,291743,2820,5,23,0.1000085,3.417736,0.341803,0.07832543,0.000000000007145933,0.2618119,0.0000000000200962,,-1.45011e-05,,,0
8947,	09/26/2022 01:00:06.881,293633,4710,5,23,0.1000051,3.445789,0.344596,0.1308208,0.000000000007145933,0.4417659,0.0000000000200962,,5.33424e-05,,0.859682,
9010,	09/26/2022 01:31:36.881,295523,6600,5,23,0.1000071,3.535096,0.353535,0.1833156,0.000000000007145933,0.6239896,0.0000000000200962,,0.000323157,,0.0902735,10.0157
9073,	09/26/2022 01:51:49.525,296736,310.0001,5,25,-0.01000041,3.381957,-0.033821,0.1883907,0.0008610072,0.6422673,0.002937677,,-0.000126804,,0.0182267,
9136,	09/26/2022 02:02:19.525,297366,940.0001,5,25,-0.01000035,3.328,-0.0332812,0.1883907,0.002610795,0.6422673,0.008799359,,-2.75421e-05,,,
9199,	09/26/2022 02:12:49.526,297996,1570.001,5,25,-0.01000047,3.314208,-0.0331436,0.1883907,0.004360591,0.6422673,0.01460738,,9.52362e-06,,,
9262,	09/26/2022 02:23:19.526,298626,2200.001,5,25,-0.01000042,3.312708,-0.0331285,0.1883907,0.006110393,0.6422673,0.02040474,,,,,
9325,	09/26/2022 02:33:49.526,299256,2830.001,5,25,-0.0100003,3.312524,-0.0331262,0.1883907,0.007860191,0.6422673,0.02620118,,-1.58453e-05,,,
9388,	09/26/2022 02:44:19.527,299886,3460,5,25,-0.01000037,3.312356,-0.0331248,0.1883907,0.009609995,0.6422673,0.03199743,,-1.01552e-05,,,
9451,	09/26/2022 02:54:49.525,300516,4090,5,25,-0.01000039,3.31219,-0.0331232,0.1883907,0.01135981,0.6422673,0.0377933,,-1.13388e-05,,0,
9514,	09/26/2022 03:05:19.525,301146,4720,5,25,-0.01000026,3.311753,-0.0331184,0.1883907,0.01310961,0.6422673,0.04358858,,-1.18129e-05,,,
9577,	09/26/2022 03:15:49.526,301776,5350.001,5,25,-0.01000034,3.311345,-0.0331146,0.1883907,0.01485941,0.6422673,0.04938315,,,,,0
9640,	09/26/2022 03:26:19.526,302406,5980.001,5,25,-0.0100003,3.310801,-0.033109,0.1883907,0.01660921,0.6422673,0.05517697,,-2.52853e-06,,0,
9703,	09/26/2022 03:36:49.526,303036,6610.001,5,25,-0.01000031,3.310489,-0.0331059,0.1883907,0.01835901,0.6422673,0.06097003,,-1.29204e-05,,,
9766,	09/26/2022 03:47:19.526,303666,7240,5,25,-0.01000043,3.310102,-0.0331024,0.1883907,0.0201088,0.6422673,0.06676234,,-1.43415e-05,,,
9829,	09/26/2022 03:57:49.525,304296,7870,5,25,-0.01000035,3.309682,-0.033098,0.1883907,0.0218586,0.6422673,0.07255396,,-1.94798e-05,,0,
9892,	09/26/2022 04:08:19.525,304926,8500,5,25,-0.01000033,3.309276,-0.0330939,0.1883907,0.0236084,0.6422673,0.07834487,,,,,0
9955,	09/26/2022 04:18:49.525,305556,9130,5,25,-0.01000039,3.308754,-0.0330888,0.1883907,0.02535819,0.6422673,0.08413506,,2.72607e-06,,,
10018,	09/26/2022 04:29:19.525,306186,9760,5,25,-0.01000039,3.308497,-0.0330863,0.1883907,0.027108,0.6422673,0.08992452,,1.73055e-05,,0,
10081,	09/26/2022 04:39:49.526,306816,10390,5,25,-0.01000032,3.307858,-0.0330796,0.1883907,0.02885779,0.6422673,0.09571315,,1.82154e-05,,,
10144,	09/26/2022 04:50:19.525,307446,11020,5,25,-0.01000034,3.30743,-0.0330754,0.1883907,0.0306076,0.6422673,0.1015009,,6.87478e-06,,,
10207,	09/26/2022 05:00:49.526,308076,11650,5,25,-0.01000035,3.306664,-0.0330678,0.1883907,0.0323574,0.6422673,0.1072877,,,,0,0
10270,	09/26/2022 05:11:19.525,308706,12280,5,25,-0.01000029,3.305989,-0.0330608,0.1883907,0.03410719,0.6422673,0.1130731,,-2.29188e-06,,,
10333,	09/26/2022 05:21:49.525,309336,12910,5,25,-0.01000034,3.30481,-0.0330492,0.1883907,0.03585699,0.6422673,0.1188569,,1.80958e-05,,,
10396,	09/26/2022 05:32:19.527,309966,13540,5,25,-0.01000044,3.303444,-0.0330359,0.1883907,0.03760679,0.6422673,0.1246387,,2.09789e-05,,0,
10459,	09/26/2022 05:42:49.525,310596,14170,5,25,-0.01000041,3.30162,-0.0330176,0.1883907,0.03935659,0.6422673,0.1304176,,1.41861e-05,,,
10522,	09/26/2022 05:53:19.525,311226,14800,5,25,-0.01000031,3.299012,-0.0329911,0.1883907,0.04110638,0.6422673,0.1361927,,,,,0
10585,	09/26/2022 06:03:49.525,311856,15430,5,25,-0.01000042,3.295418,-0.0329556,0.1883907,0.04285618,0.6422673,0.1419623,,-2.16924e-05,,,
10648,	09/26/2022 06:14:19.526,312486,16060,5,25,-0.0100004,3.290805,-0.0329094,0.1883907,0.04460596,0.6422673,0.1477245,,1.20926e-05,,,
10711,	09/26/2022 06:24:49.525,313116,16690,5,25,-0.01000041,3.286139,-0.0328627,0.1883907,0.04635576,0.6422673,0.1534787,,2.29156e-06,,,
10774,	09/26/2022 06:35:19.525,313746,17320,5,25,-0.01000039,3.282708,-0.0328284,0.1883907,0.04810555,0.6422673,0.1592255,,-2.24036e-05,,,
10837,	09/26/2022 06:45:49.525,314376,17950,5,25,-0.01000037,3.280186,-0.0328031,0.1883907,0.04985533,0.6422673,0.1649671,,-1.80179e-05,,,
10900,	09/26/2022 06:56:19.525,315006,18580,5,25,-0.01000025,3.278803,-0.0327888,0.1883907,0.05160511,0.6422673,0.1707055,,1.94785e-05,,,
10963,	09/26/2022 07:06:49.526,315636,19210,5,25,-0.01000031,3.277519,-0.0327762,0.1883907,0.0533549,0.6422673,0.1764415,,2.96346e-06,,0,
11026,	09/26/2022 07:17:19.525,316266,19840,5,25,-0.01000023,3.276852,-0.0327693,0.1883907,0.05510471,0.6422673,0.1821759,,-1.1973e-05,,,
11089,	09/26/2022 07:27:49.526,316896,20470,5,25,-0.01000026,3.276078,-0.0327616,0.1883907,0.05685449,0.6422673,0.187909,,,,,
11152,	09/26/2022 07:38:19.525,317526,21100,5,25,-0.01000028,3.275692,-0.0327578,0.1883907,0.05860427,0.6422673,0.1936411,,3.67467e-06,,0,
11215,	09/26/2022 07:48:49.525,318156,21730,5,25,-0.01000026,3.275102,-0.0327519,0.1883907,0.06035405,0.6422673,0.1993723,,7.4675e-06,,,
11278,	09/26/2022 07:59:19.525,318786,22360,5,25,-0.01000024,3.274859,-0.0327494,0.1883907,0.06210383,0.6422673,0.2051028,,7.07239e-06,,,
11341,	09/26/2022 08:09:49.525,319416,22990,5,25,-0.01000024,3.274433,-0.0327451,0.1883907,0.06385359,0.6422673,0.2108326,,-1.78193e-05,,0,
11404,	09/26/2022 08:20:19.526,320046,23620,5,25,-0.0100003,3.274226,-0.0327432,0.1883907,0.06560336,0.6422673,0.2165619,,,,,
11467,	09/26/2022 08:30:49.525,320676,24250,5,25,-0.01000028,3.273767,-0.0327386,0.1883907,0.06735314,0.6422673,0.2222907,,8.25778e-06,,,
11530,	09/26/2022 08:41:19.525,321306,24880,5,25,-0.01000025,3.273591,-0.0327367,0.1883907,0.06910293,0.6422673,0.228019,,1.12229e-05,,0,
11593,	09/26/2022 08:51:49.525,321936,25510,5,25,-0.01000013,3.273314,-0.0327336,0.1883907,0.0708527,0.6422673,0.2337468,,1.27244e-05,,,
11656,	09/26/2022 09:02:19.525,322566,26140,5,25,-0.01000037,3.273179,-0.032733,0.1883907,0.07260247,0.6422673,0.2394742,,-2.10217e-05,,,
11719,	09/26/2022 09:12:49.526,323196,26770.001,5,25,-0.01000011,3.272822,-0.0327286,0.1883907,0.07435223,0.6422673,0.2452011,,,,,0
11782,	09/26/2022 09:23:19.525,323826,27400,5,25,-0.0100002,3.272701,-0.0327277,0.1883907,0.07610201,0.6422673,0.2509277,,9.28537e-06,,,
11845,	09/26/2022 09:33:49.525,324456,28030,5,25,-0.01000041,3.272299,-0.0327243,0.1883907,0.0778518,0.6422673,0.2566539,,9.99675e-06,,0,
11908,	09/26/2022 09:44:19.525,325086,28660,5,25,-0.01000046,3.272186,-0.0327234,0.1883907,0.07960161,0.6422673,0.2623797,,-5.96649e-06,,,
11971,	09/26/2022 09:54:49.525,325716,29290,5,25,-0.01000032,3.271851,-0.0327196,0.1883907,0.08135139,0.6422673,0.2681051,,-7.03375e-06,,,
12034,	09/26/2022 10:05:19.526,326346,29920,5,25,-0.0100004,3.271712,-0.0327184,0.1883907,0.08310118,0.6422673,0.27383,,,,0,0.292102
12097,	09/26/2022 10:15:49.526,326976,30550,5,25,-0.01000046,3.271351,-0.032715,0.1883907,0.08485097,0.6422673,0.2795546,,1.45794e-05,,,
12160,	09/26/2022 10:26:19.526,327606,31180,5,25,-0.01000028,3.271314,-0.0327141,0.1883907,0.0866008,0.6422673,0.2852789,,6.9538e-06,,,
12223,	09/26/2022 10:36:49.525,328236,31810,5,25,-0.01000038,3.270946,-0.0327107,0.1883907,0.08835059,0.6422673,0.2910027,,8.89032e-06,,,
12286,	09/26/2022 10:47:19.526,328866,32440,5,25,-0.01000038,3.270788,-0.0327091,0.1883907,0.09010039,0.6422673,0.296726,,5.09707e-06,,,
12349,	09/26/2022 10:57:49.525,329496,33070,5,25,-0.01000025,3.270391,-0.0327047,0.1883907,0.09185019,0.6422673,0.3024489,,,,,
12412,	09/26/2022 11:08:19.525,330126,33700,5,25,-0.01000038,3.270191,-0.0327032,0.1883907,0.09359998,0.6422673,0.3081712,,-1.97541e-07,,,
12475,	09/26/2022 11:18:49.526,330756,34330,5,25,-0.01000026,3.269715,-0.032698,0.1883907,0.0953498,0.6422673,0.313893,,1.27618e-05,,,
12538,	09/26/2022 11:29:19.526,331386,34960.001,5,25,-0.01000047,3.269506,-0.0326966,0.1883907,0.09709961,0.6422673,0.3196142,,1.25256e-05,,,
12601,	09/26/2022 11:39:49.525,332016,35590,5,25,-0.01000026,3.269048,-0.0326913,0.1883907,0.09884941,0.6422673,0.3253347,,-1.43823e-05,,,
12664,	09/26/2022 11:50:19.526,332646,36220,5,25,-0.01000029,3.268476,-0.0326857,0.1883907,0.1005992,0.6422673,0.3310544,,,,,
12727,	09/26/2022 12:00:49.526,333276,36850,5,25,-0.01000031,3.267873,-0.0326797,0.1883907,0.102349,0.6422673,0.3367733,,1.1379e-05,,,
12790,	09/26/2022 12:11:19.525,333906,37480,5,25,-0.01000034,3.267429,-0.0326754,0.1883907,0.1040988,0.6422673,0.3424911,,6.36152e-06,,,
12853,	09/26/2022 12:21:49.527,334536,38110,5,25,-0.01000046,3.266362,-0.0326651,0.1883907,0.1058486,0.6422673,0.3482075,,1.57269e-05,,,
12916,	09/26/2022 12:32:19.525,335166,38740,5,25,-0.01000031,3.265398,-0.032655,0.1883907,0.1075985,0.6422673,0.3539222,,-1.69528e-05,,,
12979,	09/26/2022 12:42:49.526,335796,39370.001,5,25,-0.01000041,3.263736,-0.0326387,0.1883907,0.1093483,0.6422673,0.3596346,,,,,
13042,	09/26/2022 12:53:19.525,336426,40000,5,25,-0.01000044,3.261862,-0.0326201,0.1883907,0.1110981,0.6422673,0.365344,,1.50146e-06,,0,
13105,	09/26/2022 13:03:49.525,337056,40630,5,25,-0.0100002,3.259529,-0.0325959,0.1883907,0.1128479,0.6422673,0.3710495,,-3.47693e-06,,,
13168,	09/26/2022 13:14:19.526,337686,41260,5,25,-0.01000038,3.256939,-0.0325706,0.1883907,0.1145977,0.6422673,0.3767507,,-1.77016e-05,,,
13231,	09/26/2022 13:24:49.525,338316,41890,5,25,-0.01000037,3.254822,-0.0325494,0.1883907,0.1163474,0.6422673,0.3824478,,-1.07071e-05,,,
13294,	09/26/2022 13:35:19.527,338946,42520,5,25,-0.01000036,3.252491,-0.0325261,0.1883907,0.1180972,0.6422673,0.3881411,,,,,0
13357,	09/26/2022 13:45:49.526,339576,43150,5,25,-0.01000039,3.250339,-0.0325047,0.1883907,0.119847,0.6422673,0.3938303,,-2.02709e-05,,,
13420,	09/26/2022 13:56:19.525,340206,43780,5,25,-0.01000024,3.247638,-0.0324772,0.1883907,0.1215968,0.6422673,0.3995155,,-1.64766e-05,,,0
13483,	09/26/2022 14:06:49.525,340836,44410,5,25,-0.01000027,3.245127,-0.0324521,0.1883907,0.1233466,0.6422673,0.405196,,-1.39093e-05,,,
13546,	09/26/2022 14:17:19.526,341466,45040,5,25,-0.01000026,3.242244,-0.0324233,0.1883907,0.1250965,0.6422673,0.4108719,,-1.90836e-05,,0,
13609,	09/26/2022 14:27:49.525,342096,45670,5,25,-0.01000034,3.23975,-0.0323986,0.1883907,0.1268463,0.6422673,0.4165429,,,,,
13672,	09/26/2022 14:38:19.526,342726,46300,5,25,-0.01000028,3.237346,-0.0323744,0.1883907,0.1285961,0.6422673,0.4222097,,5.21574e-06,,,
13735,	09/26/2022 14:48:49.525,343356,46930,5,25,-0.01000039,3.235309,-0.0323544,0.1883907,0.1303459,0.6422673,0.4278725,,5.72932e-06,,,0
13798,	09/26/2022 14:59:19.526,343986,47560,5,25,-0.01000028,3.233161,-0.0323325,0.1883907,0.1320957,0.6422673,0.4335318,,-1.00757e-05,,,
13861,	09/26/2022 15:09:49.525,344616,48190,5,25,-0.01000033,3.231102,-0.0323121,0.1883907,0.1338455,0.6422673,0.4391875,,-1.91231e-05,,,
13924,	09/26/2022 15:20:19.525,345246,48820,5,25,-0.01000027,3.228853,-0.0322894,0.1883907,0.1355953,0.6422673,0.4448392,,-1.60413e-05,,,
13987,	09/26/2022 15:30:49.526,345876,49450,5,25,-0.01000042,3.226075,-0.0322621,0.1883907,0.1373451,0.6422673,0.4504867,,-2.07046e-05,,,
14050,	09/26/2022 15:41:19.525,346506,50080,5,25,-0.01000028,3.223106,-0.032232,0.1883907,0.1390949,0.6422673,0.4561292,,-1.08264e-05,,,
14113,	09/26/2022 15:51:49.525,347136,50710,5,25,-0.01000032,3.219662,-0.0321977,0.1883907,0.1408447,0.6422673,0.4617659,,-1.2644e-05,,,
14176,	09/26/2022 16:02:19.525,347766,51340,5,25,-0.01000037,3.21561,-0.0321573,0.1883907,0.1425945,0.6422673,0.4673961,,,,,
14239,	09/26/2022 16:12:49.526,348396,51970,5,25,-0.01000041,3.211898,-0.0321203,0.1883907,0.1443442,0.6422673,0.4730195,,-3.31864e-06,,,
14302,	09/26/2022 16:23:19.525,349026,52600,5,25,-0.01000041,3.20831,-0.0320844,0.1883907,0.146094,0.6422673,0.4786364,,-9.64106e-06,,0,
14365,	09/26/2022 16:33:49.526,349656,53230,5,25,-0.01000037,3.205155,-0.0320527,0.1883907,0.1478438,0.6422673,0.4842475,,-2.22851e-05,,,
14428,	09/26/2022 16:44:19.525,350286,53860,5,25,-0.01000024,3.201531,-0.0320161,0.1883907,0.1495936,0.6422673,0.4898528,,-1.07871e-05,,,
14491,	09/26/2022 16:54:49.526,350916,54490,5,25,-0.01000051,3.197292,-0.0319746,0.1883907,0.1513434,0.6422673,0.4954512,,,,,
14554,	09/26/2022 17:05:19.526,351546,55120,5,25,-0.01000044,3.19183,-0.0319197,0.1883907,0.1530933,0.6422673,0.5010414,,-7.70462e-06,,,
14617,	09/26/2022 17:15:49.525,352176,55750,5,25,-0.01000035,3.18633,-0.0318644,0.1883907,0.1548431,0.6422673,0.5066216,,-2.15738e-05,,0,
14680,	09/26/2022 17:26:19.525,352806,56380,5,25,-0.01000053,3.183308,-0.0318348,0.1883907,0.1565929,0.6422673,0.5121939,,-2.18109e-05,,,0
14743,	09/26/2022 17:36:49.526,353436,57010,5,25,-0.01000049,3.182149,-0.031823,0.1883907,0.1583427,0.6422673,0.517763,,-6.32248e-06,,,
14806,	09/26/2022 17:47:19.525,354066,57640,5,25,-0.01000043,3.180959,-0.031811,0.1883907,0.1600926,0.6422673,0.5233302,,,,,
14869,	09/26/2022 17:57:49.526,354696,58270,5,25,-0.01000047,3.180036,-0.0318019,0.1883907,0.1618424,0.6422673,0.5288954,,1.23687e-05,,,
14932,	09/26/2022 18:08:19.525,355326,58900,5,25,-0.01000052,3.178697,-0.0317886,0.1883907,0.1635922,0.6422673,0.5344587,,-6.95426e-06,,,
14995,	09/26/2022 18:18:49.526,355956,59530.001,5,25,-0.0100005,3.17732,-0.0317748,0.1883907,0.165342,0.6422673,0.5400196,,-1.58041e-05,,,
15058,	09/26/2022 18:29:19.525,356586,60160,5,25,-0.01000042,3.175263,-0.031754,0.1883907,0.1670918,0.6422673,0.5455776,,-1.58838e-05,,,0
15121,	09/26/2022 18:39:49.525,357216,60790,5,25,-0.01000054,3.172584,-0.0317276,0.1883907,0.1688416,0.6422673,0.5511315,,,,,
15184,	09/26/2022 18:50:19.527,357846,61420,5,25,-0.01000057,3.167613,-0.0316779,0.1883907,0.1705915,0.6422673,0.5566791,,-5.65001e-06,,,
15247,	09/26/2022 19:00:49.525,358476,62050,5,25,-0.01000042,3.156221,-0.0315635,0.1883907,0.1723413,0.6422673,0.5622135,,-5.07761e-05,,,
15310,	09/26/2022 19:11:19.525,359106,62680,5,25,-0.01000048,3.135179,-0.0313533,0.1883907,0.1740911,0.6422673,0.5677187,,-4.95886e-05,,0,
15373,	09/26/2022 19:21:49.525,359736,63310,5,25,-0.01000053,3.110753,-0.0311092,0.1883907,0.1758409,0.6422673,0.5731838,,-1.8649e-05,,,
15436,	09/26/2022 19:32:19.526,360366,63940,5,25,-0.01000045,3.082565,-0.030827,0.1883907,0.1775908,0.6422673,0.578603,,,,0.0581721,
15499,	09/26/2022 19:42:49.525,360996,64570,5,25,-0.01000049,3.049205,-0.0304935,0.1883907,0.1793406,0.6422673,0.5839687,,-7.5075e-05,,0,
15562,	09/26/2022 19:53:19.526,361626,65200,5,25,-0.01000063,3.009396,-0.0300959,0.1883907,0.1810904,0.6422673,0.5892705,,-6.34208e-05,,,
15625,	09/26/2022 20:03:49.525,362256,65830,5,25,-0.01000036,2.961633,-0.0296174,0.1883907,0.1828403,0.6422673,0.594496,,-0.000103159,,0.033807,
15688,	09/26/2022 20:14:19.526,362886,66460.001,5,25,-0.01000046,2.902987,-0.0290312,0.1883907,0.1845901,0.6422673,0.599629,,-0.000119356,,,
15751,	09/26/2022 20:24:49.527,363516,67090,5,25,-0.01000058,2.826221,-0.0282638,0.1883907,0.1863399,0.6422673,0.604645,,-0.000126061,,0.0199722,
15814,	09/26/2022 20:35:19.526,364146,67720.001,5,25,-0.01000032,2.716573,-0.0271666,0.1883907,0.1880898,0.6422673,0.6095012,,-0.000251949,,0.0127968,
15877,	09/26/2022 20:45:49.525,364776,68350,5,25,-0.01000031,2.504107,-0.0250418,0.1883907,0.1898396,0.6422673,0.6140932,,-0.000438257,,0.00571755,
15940,	09/26/2022 21:02:48.139,365794,410.0003,5,27,0.009999167,2.775705,0.0277547,0.1895293,0.1898633,0.6453503,0.6141526,,0.000273805,,0.0108148,92.7293
16003,	09/26/2022 21:13:18.140,366424.337,1040.001,5,27,0.009999141,2.895598,0.0289535,0.1912789,0.1898633,0.6503205,0.6141526,,0.000131056,,0.0185826,
16066,	09/26/2022 21:23:48.140,367054,1670,5,27,0.009999152,2.97424,0.0297399,0.1930285,0.1898633,0.6554593,0.6141526,,9.26361e-05,,,
16129,	09/26/2022 21:34:18.140,367684,2300,5,27,0.00999932,3.032858,0.0303265,0.1947781,0.1898633,0.6607164,0.6141526,,9.2038e-05,,,
16192,	09/26/2022 21:44:48.140,368314.337,2930.001,5,27,0.009999245,3.079598,0.0307937,0.1965277,0.1898633,0.666065,0.6141526,,8.89413e-05,,0,
16255,	09/26/2022 21:55:18.139,368944,3560,5,27,0.00999932,3.118492,0.0311828,0.1982774,0.1898633,0.6714881,0.6141526,,,,,
16318,	09/26/2022 22:05:48.139,369574,4190,5,27,0.00999935,3.151264,0.0315106,0.200027,0.1898633,0.6769736,0.6141526,,6.31774e-05,,,
16381,	09/26/2022 22:16:18.140,370204,4820,5,27,0.009999245,3.179746,0.0317951,0.2017766,0.1898633,0.6825126,0.6141526,,2.758e-05,,,
16444,	09/26/2022 22:26:48.139,370834,5450,5,27,0.009999145,3.204055,0.0320378,0.2035262,0.1898633,0.6880978,0.6141526,,2.01502e-05,,,
16507,	09/26/2022 22:37:18.140,371464,6080,5,27,0.009999212,3.224663,0.0322441,0.2052758,0.1898633,0.6937223,0.6141526,,4.24019e-05,,,
16570,	09/26/2022 22:47:48.139,372094,6710,5,27,0.009999327,3.236279,0.0323606,0.2070254,0.1898633,0.6993763,0.6141526,,,,0,
16633,	09/26/2022 22:58:18.140,372724,7340,5,27,0.009999208,3.239255,0.03239,0.208775,0.1898633,0.7050418,0.6141526,,9.95608e-06,,,
16696,	09/26/2022 23:08:48.140,373354.337,7970.001,5,27,0.009999212,3.240695,0.0324044,0.2105246,0.1898633,0.7107104,0.6141526,,8.81129e-06,,0.732938,
16759,	09/26/2022 23:19:18.139,373984,8600,5,27,0.009999301,3.242043,0.0324182,0.2122743,0.1898633,0.7163817,0.6141526,,1.23665e-05,,,
16822,	09/26/2022 23:29:48.139,374614,9230,5,27,0.009999271,3.243689,0.0324345,0.2140239,0.1898633,0.7220554,0.6141526,,1.67149e-05,,,
16885,	09/26/2022 23:40:18.139,375244,9860,5,27,0.009999219,3.245165,0.0324491,0.2157735,0.1898633,0.7277319,0.6141526,,,,0,
16948,	09/26/2022 23:50:48.140,375874.337,10490.001,5,27,0.009999167,3.247239,0.0324697,0.2175231,0.1898633,0.7334114,0.6141526,,1.16159e-05,,,
17011,	09/27/2022 00:01:18.139,376504,11120,5,27,0.009999257,3.249413,0.0324917,0.2192727,0.1898633,0.7390947,0.6141526,,1.4028e-05,,0,
17074,	09/27/2022 00:11:48.139,377134,11750,5,27,0.009999279,3.252463,0.0325223,0.2210223,0.1898633,0.7447824,0.6141526,,2.76618e-05,,,
17137,	09/27/2022 00:22:18.140,377764.337,12380.001,5,27,0.009999216,3.255912,0.0325566,0.2227719,0.1898633,0.7504758,0.6141526,,2.29176e-05,,,
17200,	09/27/2022 00:32:48.140,378394,13010,5,27,0.009999208,3.259951,0.0325969,0.2245215,0.1898633,0.7561759,0.6141526,,,,,
17263,	09/27/2022 00:43:18.140,379024,13640,5,27,0.009999219,3.264394,0.0326414,0.2262711,0.1898633,0.7618835,0.6141526,,-8.49428e-06,,,
17326,	09/27/2022 00:53:48.139,379654,14270,5,27,0.009999193,3.269116,0.0326885,0.2280207,0.1898633,0.767599,0.6141526,,2.5089e-05,,,
17389,	09/27/2022 01:04:18.139,380284,14900,5,27,0.009999186,3.273432,0.0327317,0.2297703,0.1898633,0.7733225,0.6141526,,1.38309e-05,,,
17452,	09/27/2022 01:14:48.139,380914,15530,5,27,0.009999249,3.278011,0.0327776,0.2315199,0.1898633,0.7790537,0.6141526,,3.24027e-06,,0,
17515,	09/27/2022 01:25:18.139,381544,16160,5,27,0.009999137,3.282254,0.0328197,0.2332695,0.1898633,0.7847927,0.6141526,,,,,
17578,	09/27/2022 01:35:48.139,382174,16790,5,27,0.009999216,3.286476,0.0328622,0.2350191,0.1898633,0.790539,0.6141526,,-6.24298e-06,,,
17641,	09/27/2022 01:46:18.140,382804.337,17420.001,5,27,0.009999219,3.290143,0.0328989,0.2367688,0.1898633,0.7962924,0.6141526,,1.22491e-06,,0,
17704,	09/27/2022 01:56:48.140,383434,18050,5,27,0.009999245,3.293469,0.0329322,0.2385184,0.1898633,0.802052,0.6141526,,5.53203e-07,,,
17767,	09/27/2022 02:07:18.140,384064.337,18680.001,5,27,0.009999264,3.296516,0.0329627,0.240268,0.1898633,0.807817,0.6141526,,-1.24873e-05,,,0
17830,	09/27/2022 02:17:48.140,384694,19310,5,27,0.009999305,3.299047,0.0329882,0.2420176,0.1898633,0.8135867,0.6141526,,,,,
17893,	09/27/2022 02:28:18.140,385324.337,19940.001,5,27,0.009999137,3.30209,0.0330181,0.2437672,0.1898633,0.8193614,0.6141526,,2.1417e-05,,,
17956,	09/27/2022 02:38:48.140,385954,20570,5,27,0.009999253,3.305191,0.0330494,0.2455168,0.1898633,0.8251415,0.6141526,,-1.41465e-05,,,
18019,	09/27/2022 02:49:18.139,386584,21200,5,27,0.009999197,3.308636,0.0330837,0.2472664,0.1898633,0.8309274,0.6141526,,-6.24303e-06,,,
18082,	09/27/2022 02:59:48.140,387214,21830,5,27,0.009999231,3.311831,0.0331158,0.249016,0.1898633,0.836719,0.6141526,,-9.56156e-06,,,
18145,	09/27/2022 03:10:18.140,387844,22460,5,27,0.00999932,3.314493,0.0331427,0.2507657,0.1898633,0.8425159,0.6141526,,,,,
18208,	09/27/2022 03:20:48.139,388474,23090,5,27,0.009999231,3.316644,0.0331639,0.2525153,0.1898633,0.848317,0.6141526,,9.83805e-06,,,0
18271,	09/27/2022 03:31:18.140,389104.337,23720.001,5,27,0.009999212,3.317912,0.0331765,0.2542649,0.1898633,0.8541209,0.6141526,,-3.55613e-07,,0,
18334,	09/27/2022 03:41:48.140,389734.337,24350.001,5,27,0.00999926,3.319291,0.0331905,0.2560145,0.1898633,0.8599273,0.6141526,,-1.24084e-05,,,
18397,	09/27/2022 03:52:18.140,390364,24980,5,27,0.009999201,3.320914,0.0332065,0.2577641,0.1898633,0.8657362,0.6141526,,-1.16951e-05,,,
18460,	09/27/2022 04:02:48.140,390994.337,25610.001,5,27,0.009999279,3.322276,0.0332204,0.2595137,0.1898633,0.8715477,0.6141526,,4.38582e-06,,,
18523,	09/27/2022 04:13:18.139,391624,26240,5,27,0.009999406,3.323714,0.0332352,0.2612633,0.1898633,0.8773619,0.6141526,,9.75895e-06,,0,
18586,	09/27/2022 04:23:48.139,392254,26870,5,27,0.009999279,3.324924,0.0332468,0.2630129,0.1898633,0.8831782,0.6141526,,3.83275e-06,,,
18649,	09/27/2022 04:34:18.140,392884,27500,5,27,0.009999126,3.325452,0.0332516,0.2647626,0.1898633,0.8889961,0.6141526,,2.35522e-05,,,
18712,	09/27/2022 04:44:48.139,393514,28130,5,27,0.009999294,3.326107,0.0332587,0.2665122,0.1898633,0.8948149,0.6141526,,1.4302e-05,,0,
18775,	09/27/2022 04:55:18.139,394144,28760,5,27,0.009999342,3.32631,0.0332609,0.2682618,0.1898633,0.9006345,0.6141526,,-1.31561e-05,,,
18838,	09/27/2022 05:05:48.139,394774,29390,5,27,0.009999223,3.326756,0.033265,0.2700114,0.1898633,0.9064545,0.6141526,,1.19322e-05,,,
18901,	09/27/2022 05:16:18.139,395404,30020,5,27,0.009999238,3.326886,0.0332663,0.271761,0.1898633,0.9122751,0.6141526,,1.37884e-05,,0,
18964,	09/27/2022 05:26:48.139,396034,30650,5,27,0.009999223,3.327297,0.0332704,0.2735106,0.1898633,0.9180963,0.6141526,,2.96322e-06,,,
19027,	09/27/2022 05:37:18.140,396664.337,31280.001,5,27,0.009999402,3.327579,0.0332738,0.2752602,0.1898633,0.9239179,0.6141526,,,,,
19090,	09/27/2022 05:47:48.139,397294,31910,5,27,0.0099991,3.327859,0.0332756,0.2770098,0.1898633,0.9297401,0.6141526,,-1.83732e-05,,0,
19153,	09/27/2022 05:58:18.140,397924,32540,5,27,0.009999294,3.328024,0.0332779,0.2787594,0.1898633,0.9355627,0.6141526,,-1.20119e-05,,,
19216,	09/27/2022 06:08:48.140,398554,33170,5,27,0.009999249,3.328428,0.0332818,0.2805091,0.1898633,0.9413858,0.6141526,,2.21267e-06,,,
19279,	09/27/2022 06:19:18.140,399184,33800,5,27,0.009999197,3.328565,0.033283,0.2822587,0.1898633,0.9472094,0.6141526,,1.3473e-05,,,
19342,	09/27/2022 06:29:48.140,399814.337,34430.001,5,27,0.009999223,3.329013,0.0332875,0.2840083,0.1898633,0.9530334,0.6141526,,,,,
19405,	09/27/2022 06:40:18.140,400444.337,35060.001,5,27,0.009999175,3.329137,0.0332886,0.2857579,0.1898633,0.958858,0.6141526,,-2.00734e-05,,,
19468,	09/27/2022 06:50:48.140,401074.337,35690.001,5,27,0.009999353,3.329549,0.0332933,0.2875075,0.1898633,0.964683,0.6141526,,2.6276e-05,,,
19531,	09/27/2022 07:01:18.140,401704.337,36320.001,5,27,0.009999219,3.32971,0.0332945,0.2892571,0.1898633,0.9705086,0.6141526,,1.13803e-05,,,
19594,	09/27/2022 07:11:48.140,402334.337,36950.001,5,27,0.009999335,3.330221,0.0333,0.2910067,0.1898633,0.9763347,0.6141526,,3.75388e-06,,,
19657,	09/27/2022 07:22:18.140,402964,37580,5,27,0.009999096,3.330375,0.0333007,0.2927563,0.1898633,0.9821615,0.6141526,,,,,
19720,	09/27/2022 07:32:48.139,403594,38210,5,27,0.009999201,3.330827,0.0333056,0.2945059,0.1898633,0.9879887,0.6141526,,9.91699e-06,,,
19783,	09/27/2022 07:43:18.139,404224,38840,5,27,0.009999163,3.331131,0.0333085,0.2962556,0.1898633,0.9938167,0.6141526,,5.49224e-06,,0,
19846,	09/27/2022 07:53:48.139,404854,39470,5,27,0.009999156,3.331501,0.0333122,0.2980051,0.1898633,0.9996452,0.6141526,,1.36318e-05,,,
19909,	09/27/2022 08:04:18.139,405484,40100,5,27,0.009999294,3.331985,0.0333175,0.2997547,0.1898633,1.005474,0.6141526,,-6.08523e-06,,,
19972,	09/27/2022 08:14:48.139,406114,40730,5,27,0.009999331,3.332298,0.0333208,0.3015043,0.1898633,1.011304,0.6141526,,,,0,
20035,	09/27/2022 08:25:18.140,406744.337,41360.001,5,27,0.009999238,3.332624,0.0333237,0.3032539,0.1898633,1.017135,0.6141526,,1.48567e-05,,,0
20098,	09/27/2022 08:35:48.139,407374,41990,5,27,0.009999339,3.333222,0.03333,0.3050036,0.1898633,1.022966,0.6141526,,4.93907e-06,,,
20161,	09/27/2022 08:46:18.139,408004,42620,5,27,0.009999342,3.3335,0.0333328,0.3067531,0.1898633,1.028798,0.6141526,,1.00757e-05,,0,
20224,	09/27/2022 08:56:48.139,408634,43250,5,27,0.009999238,3.334128,0.0333387,0.3085028,0.1898633,1.034631,0.6141526,,9.79911e-06,,,
20287,	09/27/2022 09:07:18.140,409264.337,43880.001,5,27,0.009999327,3.334484,0.0333426,0.3102524,0.1898633,1.040465,0.6141526,,,,,
20350,	09/27/2022 09:17:48.139,409894,44510,5,27,0.009999346,3.335217,0.03335,0.312002,0.1898633,1.0463,0.6141526,,-1.54091e-06,,0,0
20413,	09/27/2022 09:28:18.140,410524.337,45140.001,5,27,0.00999919,3.335672,0.033354,0.3137516,0.1898633,1.052135,0.6141526,,1.58444e-05,,,
20476,	09/27/2022 09:38:48.140,411154.337,45770.001,5,27,0.00999929,3.336408,0.0333617,0.3155013,0.1898633,1.057972,0.6141526,,2.43794e-05,,,
20539,	09/27/2022 09:49:18.139,411784,46400,5,27,0.009999335,3.336963,0.0333674,0.3172508,0.1898633,1.06381,0.6141526,,-2.88425e-06,,0,
20602,	09/27/2022 09:59:48.140,412414.337,47030.001,5,27,0.009999298,3.337912,0.0333768,0.3190004,0.1898633,1.069649,0.6141526,,,,,
20665,	09/27/2022 10:10:18.139,413044,47660,5,27,0.00999935,3.338647,0.0333843,0.3207499,0.1898633,1.075489,0.6141526,,1.01944e-05,,,
20728,	09/27/2022 10:20:48.140,413674,48290,5,27,0.009999249,3.339722,0.0333947,0.3224995,0.1898633,1.081331,0.6141526,,2.34321e-05,,0,
20791,	09/27/2022 10:31:18.139,414304,48920,5,27,0.009999301,3.340966,0.0334073,0.324249,0.1898633,1.087175,0.6141526,,2.09416e-06,,,
20854,	09/27/2022 10:41:48.140,414934,49550,5,27,0.009999439,3.34239,0.033422,0.3259986,0.1898633,1.093022,0.6141526,,5.9661e-06,,,
20917,	09/27/2022 10:52:18.139,415564,50180,5,27,0.009999458,3.344088,0.0334391,0.3277481,0.1898633,1.098871,0.6141526,,,,,
20980,	09/27/2022 11:02:48.140,416194.337,50810.001,5,27,0.009999387,3.346298,0.0334609,0.3294978,0.1898633,1.104723,0.6141526,,-1.12999e-05,,,
21043,	09/27/2022 11:13:18.140,416824.337,51440.001,5,27,0.009999339,3.348943,0.0334872,0.3312474,0.1898633,1.110581,0.6141526,,-2.09415e-06,,,
21106,	09/27/2022 11:23:48.140,417454.337,52070.001,5,27,0.009999368,3.352808,0.033526,0.3329971,0.1898633,1.116443,0.6141526,,1.05887e-05,,0,
21169,	09/27/2022 11:34:18.140,418084.337,52700.001,5,27,0.009999331,3.357537,0.0335731,0.3347468,0.1898633,1.122314,0.6141526,,2.20873e-05,,,
21232,	09/27/2022 11:44:48.139,418714,53330,5,27,0.00999935,3.3627,0.0336248,0.3364966,0.1898633,1.128193,0.6141526,,,,0,
21295,	09/27/2022 11:55:18.140,419344,53960,5,27,0.009999301,3.366477,0.0336624,0.3382463,0.1898633,1.134081,0.6141526,,-6.67767e-06,,,
21358,	09/27/2022 12:05:48.139,419974,54590,5,27,0.009999368,3.368056,0.0336784,0.3399957,0.1898633,1.139972,0.6141526,,-4.70203e-06,,0,
21421,	09/27/2022 12:16:18.139,420604,55220,5,27,0.009999234,3.368097,0.0336784,0.3417452,0.1898633,1.145864,0.6141526,,7.1914e-06,,,
21484,	09/27/2022 12:26:48.139,421234.336,55850,5,27,0.009999346,3.368129,0.0336791,0.3434946,0.1898633,1.151757,0.6141526,,1.83335e-05,,,
21547,	09/27/2022 12:37:18.139,421864,56480,5,27,0.009999439,3.367942,0.0336775,0.3452442,0.1898633,1.157649,0.6141526,,1.06684e-06,,0,0
21610,	09/27/2022 12:47:48.139,422494,57110,5,27,0.009999335,3.368216,0.0336799,0.3469937,0.1898633,1.163542,0.6141526,,-6.164e-06,,,
21673,	09/27/2022 12:58:18.139,423124,57740,5,27,0.009999335,3.36832,0.033681,0.3487433,0.1898633,1.169435,0.6141526,,1.25255e-05,,,
21736,	09/27/2022 13:08:48.139,423754,58370,5,27,0.009999465,3.368853,0.0336867,0.3504929,0.1898633,1.175328,0.6141526,,1.01944e-05,,0,
21799,	09/27/2022 13:19:18.139,424384.336,59000,5,27,0.009999409,3.369052,0.0336885,0.3522424,0.1898633,1.181223,0.6141526,,7.50738e-06,,,
21862,	09/27/2022 13:29:48.139,425014,59630,5,27,0.009999372,3.36955,0.0336934,0.353992,0.1898633,1.187117,0.6141526,,-9.08788e-07,,,0
21925,	09/27/2022 13:40:18.139,425644,60260,5,27,0.009999398,3.369718,0.0336952,0.3557416,0.1898633,1.193013,0.6141526,,-1.86498e-05,,,
21988,	09/27/2022 13:50:48.139,426274,60890,5,27,0.009999342,3.370268,0.0337005,0.3574911,0.1898633,1.198909,0.6141526,,1.33157e-05,,,
22051,	09/27/2022 14:01:18.139,426904,61520,5,27,0.009999387,3.370503,0.033703,0.3592407,0.1898633,1.204806,0.6141526,,2.42607e-05,,,
22114,	09/27/2022 14:11:48.139,427534,62150,5,27,0.009999111,3.371027,0.0337073,0.3609903,0.1898633,1.210703,0.6141526,,,,,
22177,	09/27/2022 14:22:18.139,428164,62780,5,27,0.009999316,3.371655,0.0337142,0.3627398,0.1898633,1.216601,0.6141526,,6.91469e-06,,,
22240,	09/27/2022 14:32:48.139,428794.336,63410,5,27,0.009999398,3.37206,0.0337186,0.3644894,0.1898633,1.2225,0.6141526,,9.00886e-06,,,
22303,	09/27/2022 14:43:18.139,429424,64040,5,27,0.009999409,3.372882,0.0337268,0.3662389,0.1898633,1.228401,0.6141526,,1.16168e-05,,,
22366,	09/27/2022 14:53:48.139,430054,64670,5,27,0.009999257,3.373482,0.0337323,0.3679885,0.1898633,1.234302,0.6141526,,-1.52521e-05,,,
22429,	09/27/2022 15:04:18.139,430684,65300,5,27,0.00999938,3.374713,0.033745,0.369738,0.1898633,1.240205,0.6141526,,,,,
22492,	09/27/2022 15:14:48.139,431314,65930,5,27,0.009999298,3.375991,0.0337575,0.3714876,0.1898633,1.246111,0.6141526,,1.04312e-05,,,
22555,	09/27/2022 15:25:18.139,431944.336,66560,5,27,0.009999253,3.378465,0.0337821,0.3732372,0.1898633,1.252019,0.6141526,,2.09415e-06,,0,
22618,	09/27/2022 15:35:48.139,432574,67190,5,27,0.009999268,3.38299,0.0338274,0.3749867,0.1898633,1.257933,0.6141526,,-7.62579e-06,,0,0
22681,	09/27/2022 15:46:18.139,433204,67820,5,27,0.009999312,3.394581,0.0339435,0.3767363,0.1898633,1.263861,0.6141526,,3.42972e-05,,,
22744,	09/27/2022 15:56:48.139,433834,68450,5,27,0.009999238,3.438726,0.0343846,0.3784858,0.1898633,1.269828,0.6141526,,0.000156634,,,
22807,	09/27/2022 16:13:34.522,434841,570,5,28,0,3.511243,0,0.3796976,0.1898633,1.274078,0.6141526,,-3.86824e-05,,0,
22870,	09/27/2022 16:44:04.563,436671,1800,6,30,-0.1999989,3.034663,-0.606929,0,0.09997866,0,0.3071659,,-2.85285e-05,,,
22933,	09/27/2022 17:15:17.767,438543.964,390.0007,6,31,0,2.918477,0,0,0.1823591,0,0.5501119,,0.000104293,,0,
22996,	09/27/2022 17:46:47.766,440434,2280,6,31,0,2.98834,0,0,0.1823591,0,0.5501119,,2.12579e-05,,0,
23041,	09/27/2022 18:08:47.767,441754,3600,6,31,0,2.998639,0,0,0.1823591,0,0.5501119,,-6.55903e-06,0.849264,0,0