File: Cell-11.csv
Data Point,Date Time,Test Time (s),Step Time (s),Cycle Index,Step Index,Current (A),Voltage (V),Power (W),Charge Capacity (Ah),Discharge Capacity (Ah),Charge Energy (Wh),Discharge Energy (Wh),ACR (Ohm),dV/dt (V/s),Internal Resistance (Ohm),dQ/dV (Ah/V),dV/dQ (V/Ah)
1,	09/22/2022 15:27:13.743,60.0009,60.0009,1,1,0,0.08341932,0,0,0,0,0,,4.96092e-06,,,
68,	09/22/2022 16:29:43.782,3810.04,210.001,1,2,0.0003819214,1.50008,0.000572913,0.0001083369,0,0.0001470321,0,,-9.38353e-06,,0,
135,	09/22/2022 17:03:13.783,5820.04,2220,1,2,0.00006412019,1.500058,9.6184e-05,0.0001786457,0,0.0002524953,0,,-5.72936e-07,,0,
202,	09/22/2022 17:46:13.827,8400.09,1200,1,3,0,1.364068,0,0.0001998759,0,0.0002843407,0,,-6.15813e-05,,0,
269,	09/22/2022 18:53:13.828,12420.1,5220,1,3,0,1.207363,0,0.0001998759,0,0.0002843407,0,,-2.6928e-05,,0,
336,	09/22/2022 20:00:13.827,16440.085,9240,1,3,0,1.116434,0,0.0001998759,0,0.0002843407,0,,-1.70484e-05,,0,
403,	09/22/2022 21:07:13.828,20460.1,13260,1,3,0,1.045343,0,0.0001998759,0,0.0002843407,0,,-1.78597e-05,,0,
470,	09/22/2022 22:14:13.828,24480.1,17280,1,3,0,0.9870892,0,0.0001998759,0,0.0002843407,0,,-9.84915e-06,,0,
537,	09/22/2022 23:21:13.827,28500.1,21300,1,3,0,0.9377604,0,0.0001998759,0,0.0002843407,0,,-1.31093e-05,,0,
604,	09/23/2022 00:28:13.828,32520.1,25320,1,3,0,0.894927,0,0.0001998759,0,0.0002843407,0,,-4.50443e-06,,0,
671,	09/23/2022 01:35:13.828,36540.1,29340.001,1,3,0,0.8573494,0,0.0001998759,0,0.0002843407,0,,-1.12026e-05,,,
738,	09/23/2022 02:42:13.827,40560.085,33360,1,3,0,0.8239832,0,0.0001998759,0,0.0002843407,0,,-9.56195e-06,,0,
805,	09/23/2022 03:49:13.827,44580.1,37380,1,3,0,0.794219,0,0.0001998759,0,0.0002843407,0,,-6.31218e-06,,0,
872,	09/23/2022 04:56:13.827,48600.1,41400,1,3,0,0.7677526,0,0.0001998759,0,0.0002843407,0,,-3.99103e-06,,0,
939,	09/23/2022 05:44:15.153,51481.4,1080,1,5,0.04003429,3.286091,0.131556,0.01220868,0.00000000000005236101,0.03719064,0.00000000000003971673,,0.000244646,,0.0445818,
1006,	09/23/2022 06:17:45.153,53491.4,3090,1,5,0.04003584,3.529151,0.141293,0.03455814,0.00000000000005236101,0.1140627,0.00000000000003971673,,9.48308e-06,,0,3.07698
1073,	09/23/2022 06:51:15.152,55501.4,5100,1,5,0.04003489,3.592834,0.143839,0.05690939,0.00000000000005236101,0.1936183,0.00000000000003971673,,3.13334e-05,,0.324497,
1140,	09/23/2022 07:24:22.285,57488.5,1770.001,1,7,0,3.538815,0,0.05932333,0.00000000000005236101,0.2022997,0.00000000000003971673,,-6.67767e-06,,0,
1207,	09/23/2022 07:57:22.326,59468.6,1950,1,8,0.03998119,3.64961,0.145916,0.08097783,0.00000000000005236101,0.2806891,0.00000000000003971673,,2.79354e-05,,0.493715,
1274,	09/23/2022 08:30:52.325,61478.6,3960,1,8,0.03998274,3.681817,0.147209,0.1032985,0.00000000000005236101,0.3625289,0.00000000000003971673,,2.83326e-05,,,0
1341,	09/23/2022 09:04:22.326,63488.6,5970,1,8,0.03998315,3.717021,0.148618,0.1256188,0.00000000000005236101,0.4450815,0.00000000000003971673,,3.20468e-05,,,0
1408,	09/23/2022 09:37:52.324,65498.6,7980,1,8,0.03998351,3.771695,0.150806,0.1479389,0.00000000000005236101,0.5286069,0.00000000000003971673,,3.97891e-05,,0,
1475,	09/23/2022 10:11:22.325,67508.6,9990,1,8,0.03998429,3.838884,0.153495,0.1702591,0.00000000000005236101,0.6135313,0.00000000000003971673,,4.59162e-05,,,
1542,	09/23/2022 10:44:52.324,69518.6,12000,1,8,0.03998286,3.917296,0.156625,0.1925794,0.00000000000005236101,0.70006,0.00000000000003971673,,3.16495e-05,,,
1609,	09/23/2022 11:18:22.325,71528.6,14010,1,8,0.03998137,4.00864,0.160271,0.2148994,0.00000000000005236101,0.7884966,0.00000000000003971673,,5.5946e-05,,0,
1676,	09/23/2022 11:51:52.325,73538.6,16020,1,8,0.03998303,4.108034,0.164252,0.2372194,0.00000000000005236101,0.8790486,0.00000000000003971673,,2.11773e-05,,0,
1743,	09/23/2022 12:24:43.319,75509.577,300.0002,1,10,-0.04002535,4.098706,-0.164052,0.2557741,0.003334833,0.9561142,0.01373288,,-0.00013434,,0.0999715,10.0836
1810,	09/23/2022 12:58:13.320,77519.6,2310,1,10,-0.04002303,3.954058,-0.158253,0.2557741,0.02567742,0.9561142,0.1035649,,-5.01385e-05,,,0
1877,	09/23/2022 13:30:52.821,79479.1,1020,1,7,0,3.9344,0,0,0.00000002557007,0.9561142,0.1445726,,-5.80877e-06,,,
1944,	09/23/2022 14:03:52.861,81459.1,1200,1,8,0.04000163,4.034783,0.161398,0.01333147,0.00000002557007,1.009444,0.1445726,,5.59493e-05,,0.196403,
2011,	09/23/2022 14:37:22.861,83469.1,3210,1,8,0.03999984,4.15549,0.166219,0.03566123,0.00000002557007,1.100856,0.1445726,,4.85178e-05,,,
2078,	09/23/2022 15:10:18.697,85445,1320,1,10,-0.04000354,4.033454,-0.161352,0.0429465,0.01466686,1.13129,0.2044323,,-5.60288e-05,,0,0
2145,	09/23/2022 15:43:48.698,87455,3330,1,10,-0.04000533,3.915544,-0.156643,0.0429465,0.03699989,1.13129,0.2931588,,-4.34641e-05,,,0
2212,	09/23/2022 16:16:33.155,89419.413,1680,1,7,0,3.935922,0,0,0.00000002222504,1.13129,0.3055078,,9.91764e-06,,,
2279,	09/23/2022 16:49:33.196,91399.5,1860,1,8,0.039985,4.074493,0.162919,0.02065512,0.00000002222504,1.214335,0.3055078,,4.92322e-05,,0,
2346,	09/23/2022 17:22:20.372,93366.6,0.0041,1,9,0,4.176804,0,0.04249958,0.00000002222504,1.304665,0.3055078,,-0.00459942,1.09254,0,0
2413,	09/23/2022 17:55:50.409,95376.7,2010,1,10,-0.04000539,3.99754,-0.159923,0.04249958,0.02233302,1.304665,0.3962383,,-4.27582e-05,,0,
2480,	09/23/2022 18:28:40.863,97347.1,240.0006,1,7,0,3.93258,0,0,0.00000005557466,1.304665,0.4721452,,3.71418e-06,,,
2547,	09/23/2022 19:01:40.906,99327.2,420.0016,1,8,0.0399847,3.991284,0.15959,0.004664092,0.00000005557466,1.32322,0.4721452,,4.40173e-05,,,
2614,	09/23/2022 19:35:10.905,101337,2430,1,8,0.03998578,4.107614,0.164246,0.02698506,0.00000005557466,1.413594,0.4721452,,3.49314e-05,,,0
2681,	09/23/2022 20:07:55.391,103302,540.0011,1,10,-0.04002523,4.094738,-0.163893,0.04280299,0.00600264,1.47928,0.4968586,,-5.45268e-05,,,
2748,	09/23/2022 20:41:25.391,105312,2550,1,10,-0.0400241,3.969509,-0.158876,0.04280299,0.02834538,1.47928,0.5868956,,-7.47583e-05,,0,
2815,	09/23/2022 21:14:14.253,107281,720.0002,1,7,0,3.933908,0,0,0.00000005445288,1.47928,0.6415127,,-5.41357e-06,,,
2882,	09/23/2022 21:47:14.292,109261,900.0007,1,8,0.03996575,4.01778,0.160574,0.009990309,0.00000005445288,1.51916,0.6415127,,3.08218e-05,,0,
2949,	09/23/2022 22:20:44.293,111271,2910,1,8,0.03996944,4.136257,0.165324,0.03230193,0.00000005445288,1.610103,0.6415127,,5.31874e-05,,,
3016,	09/23/2022 22:53:25.095,113231.353,990.001,1,10,-0.04000813,4.065666,-0.16266,0.04307701,0.01099999,1.655007,0.686625,,-8.06055e-05,,,0
3083,	09/23/2022 23:26:55.094,115241,3000,1,10,-0.04000562,3.945899,-0.157858,0.04307701,0.03333326,1.655007,0.7760569,,-5.8479e-05,,,0
3150,	09/23/2022 23:59:49.424,117216,1140,1,7,0,3.93446,0,0,0.00000002222597,1.655007,0.8124213,,-1.40259e-05,,,
3217,	09/24/2022 00:32:49.463,119195.721,1320.001,1,8,0.04000086,4.041487,0.161663,0.0146647,0.00000002222597,1.713721,0.8124213,,6.23508e-05,,,
3284,	09/24/2022 01:06:19.462,121206,3330,1,8,0.04000217,4.162469,0.166508,0.03699506,0.00000002222597,1.805294,0.8124213,,7.79971e-05,,,
3351,	09/24/2022 01:39:09.059,123175.317,1410,1,11,0,4.161947,0,0.0432113,0.00000002222597,1.831284,0.8124213,,-2.22062e-05,,0,
3418,	09/24/2022 02:12:39.059,125185,3420,1,11,0,4.158667,0,0.0432113,0.00000002222597,1.831284,0.8124213,,8.92976e-06,,0,
3485,	09/24/2022 02:46:09.060,127195,5430,1,11,0,4.156577,0,0.0432113,0.00000002222597,1.831284,0.8124213,,-2.77378e-05,,0,
3552,	09/24/2022 03:19:39.060,129205,7440.001,1,11,0,4.154928,0,0.0432113,0.00000002222597,1.831284,0.8124213,,-1.31982e-05,,,
3619,	09/24/2022 03:53:09.059,131215,9450,1,11,0,4.153625,0,0.0432113,0.00000002222597,1.831284,0.8124213,,-3.39785e-06,,,
3686,	09/24/2022 04:26:09.101,133195,630.001,1,12,-0.04000533,4.08025,-0.163232,0.0432113,0.00699998,1.831284,0.8411345,,-9.04702e-05,,0,0
3753,	09/24/2022 04:59:39.101,135205,2640,1,12,-0.04000765,3.961866,-0.158505,0.0432113,0.02933276,1.831284,0.9309069,,-7.51528e-05,,,0
3820,	09/24/2022 05:33:09.101,137215,4650,1,12,-0.04000795,3.855499,-0.154251,0.0432113,0.05166569,1.831284,1.01818,,-6.39708e-05,,0,
3887,	09/24/2022 06:06:39.101,139225,6660,1,12,-0.04000771,3.759609,-0.150413,0.0432113,0.07399915,1.831284,1.103198,,-5.94619e-05,,,4.20357
3954,	09/24/2022 06:40:09.102,141235,8670,1,12,-0.0400064,3.680745,-0.147253,0.0432113,0.0963322,1.831284,1.186231,,-5.05332e-05,,,0
4021,	09/24/2022 07:13:39.101,143245,10680,1,12,-0.04000598,3.628778,-0.145173,0.0432113,0.1186652,1.831284,1.267811,,5.45314e-06,,,
4088,	09/24/2022 07:47:09.101,145255,12690,1,12,-0.04000521,3.589557,-0.143601,0.0432113,0.1409981,1.831284,1.348406,,-3.83271e-06,,0,
4155,	09/24/2022 08:20:39.100,147265,14700,1,12,-0.04000431,3.547665,-0.141922,0.0432113,0.1633309,1.831284,1.428121,,-1.03127e-05,,,
4222,	09/24/2022 08:54:09.101,149275,16710,1,12,-0.04000443,3.490532,-0.139637,0.0432113,0.1856636,1.831284,1.506748,,-4.5792e-05,,0,0
4289,	09/24/2022 09:27:39.101,151285,18720.001,1,12,-0.04000717,3.390735,-0.135654,0.0432113,0.2079965,1.831284,1.58371,,-8.01709e-05,,,0
4356,	09/24/2022 10:54:41.493,156508,270.0003,1,17,0.1000003,3.531351,0.353136,0.007498474,0.0000000001186199,1.857304,1.632797,,0.000279274,,0.0925855,13.4455
4423,	09/24/2022 11:28:11.492,158518,2280,1,17,0.1000004,3.694608,0.369462,0.06332313,0.0000000001186199,2.059682,1.632797,,5.19594e-05,,0.630487,
4490,	09/24/2022 12:01:41.493,160528,4290.001,1,17,0.100003,3.798738,0.379885,0.1191464,0.0000000001186199,2.268487,1.632797,,8.60786e-05,,,
4557,	09/24/2022 12:35:11.494,162538,6300,1,17,0.09999686,4.00004,0.399991,0.1749697,0.0000000001186199,2.485685,1.632797,,0.000111189,,0.222974,
4624,	09/24/2022 13:08:41.493,164548,8310,1,17,0.03345096,4.199995,0.140494,0.2240081,0.0000000001186199,2.68757,1.632797,,1.304e-05,,0,
4691,	09/24/2022 13:41:12.589,166499,480.001,1,19,-0.1000232,4.033096,-0.403403,0.228549,0.01333453,2.706642,1.687121,,-0.000186521,,0.173865,
4758,	09/24/2022 14:14:42.589,168509,2490,1,19,-0.1000227,3.75614,-0.375699,0.228549,0.06917265,2.706642,1.904282,,-0.000115119,,0.22803,4.42004
4825,	09/24/2022 14:48:12.589,170519,4500,1,19,-0.1000221,3.582002,-0.358279,0.228549,0.1250112,2.706642,2.108493,,-6.38127e-05,,0.489615,0
4892,	09/24/2022 15:21:42.589,172529,6510.001,1,19,-0.100025,3.469038,-0.346991,0.228549,0.1808484,2.706642,2.305499,,-5.66215e-05,,0,2.49991
4959,	09/24/2022 15:54:43.490,174510,480.0003,1,20,0,3.344087,0,0.228549,0.2225425,2.706642,2.445744,,9.01602e-05,,,
5026,	09/24/2022 16:26:44.828,176431,1800,2,17,0.0999999,3.676843,0.367684,0.04999112,0.00000000009698046,0.1799386,0.0000000003250716,,3.98286e-05,,0.453465,2.30096
5093,	09/24/2022 17:00:14.828,178441,3810,2,17,0.1000005,3.774376,0.377439,0.1058146,0.00000000009698046,0.3877773,0.0000000003250716,,7.6936e-05,,,0
5160,	09/24/2022 17:33:44.828,180451,5820,2,17,0.1000013,3.962991,0.396304,0.1616377,0.00000000009698046,0.6032831,0.0000000003250716,,0.000107434,,0.234143,
5227,	09/24/2022 18:07:14.829,182461,7830,2,17,0.05560786,4.200107,0.233559,0.2153973,0.00000000009698046,0.8231755,0.0000000003250716,,1.13013e-05,,0,
5294,	09/24/2022 18:40:04.649,184431,240.0003,2,19,-0.1000079,4.074105,-0.407443,0.2232801,0.006665464,0.8562834,0.02730706,,-0.000167602,,0.15982,
5361,	09/24/2022 19:13:34.649,186441,2250,2,19,-0.1000087,3.788009,-0.378834,0.2232801,0.06249128,0.8562834,0.2464066,,-0.000154597,,0.230023,4.55951
5428,	09/24/2022 19:47:04.650,188451,4260.001,2,19,-0.1000081,3.597651,-0.359794,0.2232801,0.118319,0.8562834,0.4518901,,-5.36221e-05,,0.449854,2.26428
5495,	09/24/2022 20:20:34.650,190461,6270,2,19,-0.1000058,3.48684,-0.348704,0.2232801,0.174146,0.8562834,0.6496946,,-7.11615e-05,,0.432795,
5562,	09/24/2022 20:53:39.433,192446,240.0011,2,20,0,3.307465,0,0.2232801,0.2226075,0.8562834,0.8134933,,0.000246226,,,
5629,	09/24/2022 21:25:40.771,194367.029,1560.001,3,17,0.1000006,3.659122,0.365914,0.0433243,0.00000000005520133,0.1553771,0.0000000001847793,,5.76054e-05,,,
5696,	09/24/2022 21:59:10.770,196377.028,3570,3,17,0.1000013,3.757491,0.375754,0.09914614,0.00000000005520133,0.362474,0.0000000001847793,,7.70545e-05,,,0
5763,	09/24/2022 22:32:40.770,198387,5580,3,17,0.1000028,3.933997,0.393411,0.1549689,0.00000000005520133,0.5766789,0.0000000001847793,,9.82014e-05,,0.245106,
5830,	09/24/2022 23:06:10.771,200397,7590,3,17,0.08971316,4.19999,0.376794,0.2107162,0.00000000005520133,0.8032045,0.0000000001847793,,1.09047e-05,,0,
5897,	09/24/2022 23:38:58.794,202365,30.0001,3,19,-0.1000245,4.115644,-0.411665,0.223098,0.0008332445,0.8552081,0.003434351,,-0.000275665,,0.0567359,22.8445
5964,	09/25/2022 00:12:28.794,204375,2040,3,19,-0.1000234,3.815095,-0.381599,0.223098,0.05666739,0.8552081,0.2242936,,-0.000109413,,,
6031,	09/25/2022 00:45:58.794,206385,4050,3,19,-0.1000251,3.610628,-0.361153,0.223098,0.1125019,0.8552081,0.4309591,,-6.16755e-05,,,0
6098,	09/25/2022 01:19:28.795,208395,6060,3,19,-0.100023,3.49993,-0.350073,0.223098,0.1683397,0.8552081,0.6294467,,-6.61088e-05,,0,
6165,	09/25/2022 01:52:30.201,210376,30.001,3,20,0,3.187882,0,0.223098,0.2225489,0.8552081,0.8132985,,0.00159368,,,
6232,	09/25/2022 02:24:31.542,212298,1350,4,17,0.1000003,3.64138,0.364139,0.03749323,0.0000000001537187,0.1340408,0.0000000005138676,,0.000101184,,0.329884,
6299,	09/25/2022 02:58:01.542,214308,3360,4,17,0.1000007,3.745439,0.374547,0.09331736,0.0000000001537187,0.3405268,0.0000000005138676,,7.36167e-05,,0,
6366,	09/25/2022 03:31:31.542,216318,5370,4,17,0.09999764,3.910244,0.391015,0.1491401,0.0000000001537187,0.5537019,0.0000000005138676,,9.19001e-05,,,
6433,	09/25/2022 04:05:01.542,218328,7380.001,4,17,0.09999949,4.174763,0.417474,0.2049621,0.0000000001537187,0.7789842,0.0000000005138676,,0.000185261,,0.183472,
6500,	09/25/2022 04:38:09.517,220316,450.0004,4,18,0,4.188969,0,0.2230517,0.0000000001537187,0.8549037,0.0000000005138676,,-1.91255e-05,,0,
6567,	09/25/2022 05:11:09.558,222296,1830,4,19,-0.1000075,3.843084,-0.384337,0.2230517,0.05082707,0.8549037,0.201978,,-0.000139518,,0.207982,
6634,	09/25/2022 05:44:39.558,224306,3840,4,19,-0.1000056,3.625196,-0.36254,0.2230517,0.106654,0.8549037,0.4098507,,-5.43297e-05,,0,
6701,	09/25/2022 06:18:09.559,226316,5850,4,19,-0.100004,3.512558,-0.35127,0.2230517,0.1624807,0.8549037,0.6089498,,-4.68223e-05,,,0
6768,	09/25/2022 06:51:39.558,228326,7860,4,19,-0.1000053,3.209819,-0.320999,0.2230517,0.2183081,0.8549037,0.8000995,,-0.000908012,,0.033945,29.7453
6835,	09/25/2022 07:23:14.183,230220,1140,5,23,0.09999889,3.622231,0.362219,0.03165988,0.00000000009513478,0.1128059,0.0000000003176143,,6.86688e-05,,0.316533,3.20321
6902,	09/25/2022 07:56:44.184,232230,3150,5,23,0.09999835,3.73477,0.373471,0.08748114,0.00000000009513478,0.3186091,0.0000000003176143,,2.68288e-05,,0,
6969,	09/25/2022 08:30:14.184,234240,5160,5,23,0.09999681,3.887712,0.388759,0.1433039,0.00000000009513478,0.5308106,0.0000000003176143,,0.000119711,,0.27268,
7036,	09/25/2022 09:03:44.184,236250.442,7170,5,23,0.09999806,4.143175,0.414309,0.1991256,0.00000000009513478,0.7545618,0.0000000003176143,,0.000127573,,0.189654,5.29006
7103,	09/25/2022 09:37:10.794,238257,270.0017,5,24,0,4.190525,0,0.2230298,0.00000000009513478,0.8546603,0.0000000003176143,,-2.8609e-05,,0,0
7170,	09/25/2022 09:51:50.835,239137,550.0007,5,25,-0.009999657,4.16919,-0.0416905,0.2230298,0.001527435,0.8546603,0.006377419,,-4.25183e-05,,,
7237,	09/25/2022 10:03:00.836,239807,1220,5,25,-0.009999763,4.156668,-0.0415657,0.2230298,0.003388204,0.8546603,0.01412344,,0,,0,
7304,	09/25/2022 10:14:10.834,240477,1890,5,25,-0.009999795,4.14461,-0.0414453,0.2230298,0.005248896,0.8546603,0.02184637,,0,,,
7371,	09/25/2022 10:25:20.836,241147,2560,5,25,-0.009999869,4.133484,-0.0413343,0.2230298,0.007109676,0.8546603,0.0295482,,3.24e-06,,,
7438,	09/25/2022 10:36:30.835,241817.093,3230,5,25,-0.009999977,4.122566,-0.0412256,0.2230298,0.008970416,0.8546603,0.03722917,,-1.60419e-05,,,0
7505,	09/25/2022 10:47:40.836,242487,3900,5,25,-0.009999717,4.111654,-0.0411154,0.2230298,0.01083114,0.8546603,0.04488993,,-3.31905e-05,,0,
7572,	09/25/2022 10:58:50.835,243157,4570,5,25,-0.009999791,4.101256,-0.0410117,0.2230298,0.01269192,0.8546603,0.05253123,,1.44616e-05,,,
7639,	09/25/2022 11:10:00.834,243827,5240,5,25,-0.009999935,4.091051,-0.0409102,0.2230298,0.01455271,0.8546603,0.06015319,,-4.26739e-06,,0,
7706,	09/25/2022 11:21:10.835,244497,5910,5,25,-0.009999774,4.08064,-0.0408055,0.2230298,0.0164135,0.8546603,0.06775606,,1.05901e-05,,,
7773,	09/25/2022 11:32:20.835,245167,6580,5,25,-0.009999748,4.070792,-0.0407069,0.2230298,0.01827427,0.8546603,0.07534,,1.81758e-06,,,
7840,	09/25/2022 11:43:30.835,245837,7250,5,25,-0.009999951,4.060707,-0.0406069,0.2230298,0.02013505,0.8546603,0.08290537,,-1.73867e-06,,0,
7907,	09/25/2022 11:54:40.836,246507,7920,5,25,-0.009999881,4.050838,-0.0405079,0.2230298,0.0219958,0.8546603,0.0904522,,7.74497e-06,,0,
7974,	09/25/2022 12:05:50.835,247177,8590,5,25,-0.009999728,4.041232,-0.0404112,0.2230298,0.02385649,0.8546603,0.09798058,,7.11225e-07,,,
8041,	09/25/2022 12:17:00.836,247847,9260,5,25,-0.009999689,4.031387,-0.0403126,0.2230298,0.02571718,0.8546603,0.1054909,,-4.5838e-06,,0,
8108,	09/25/2022 12:28:10.835,248517.093,9930,5,25,-0.01000006,4.021972,-0.04022,0.2230298,0.02757786,0.8546603,0.1129832,,-2.52895e-06,,,
8175,	09/25/2022 12:39:20.834,249187,10600,5,25,-0.009999977,4.012489,-0.0401248,0.2230298,0.02943854,0.8546603,0.1204578,,9.4823e-07,,0.189305,
8242,	09/25/2022 12:50:30.834,249857,11270,5,25,-0.009999827,4.00293,-0.0400286,0.2230298,0.03129921,0.8546603,0.1279147,,,,,
8309,	09/25/2022 13:01:40.835,250527.093,11940,5,25,-0.009999771,3.993709,-0.0399362,0.2230298,0.03315991,0.8546603,0.1353543,,-9.28544e-06,,0,
8376,	09/25/2022 13:12:50.835,251197.093,12610,5,25,-0.009999748,3.984259,-0.0398416,0.2230298,0.0350206,0.8546603,0.1427766,,,,,
8443,	09/25/2022 13:24:00.836,251867,13280,5,25,-0.009999856,3.975147,-0.0397509,0.2230298,0.03688132,0.8546603,0.1501818,,-1.99933e-05,,,
8510,	09/25/2022 13:35:10.835,252537,13950,5,25,-0.009999923,3.966141,-0.0396611,0.2230298,0.03874211,0.8546603,0.1575703,,,,,
8577,	09/25/2022 13:46:20.836,253207,14620,5,25,-0.009999841,3.956944,-0.0395688,0.2230298,0.04060291,0.8546603,0.1649419,,-3.72208e-05,,,
8644,	09/25/2022 13:57:30.834,253877,15290,5,25,-0.009999856,3.948108,-0.0394805,0.2230298,0.04246366,0.8546603,0.1722965,,,,,0
8711,	09/25/2022 14:08:40.834,254547,15960,5,25,-0.009999895,3.939056,-0.0393901,0.2230298,0.04432449,0.8546603,0.1796348,,-1.60816e-05,,,
8778,	09/25/2022 14:19:50.836,255217,16630,5,25,-0.00999997,3.930412,-0.039304,0.2230298,0.04618527,0.8546603,0.1869565,,-3.54448e-05,,0,
8845,	09/25/2022 14:31:00.836,255887,17300,5,25,-0.009999877,3.921547,-0.039215,0.2230298,0.04804607,0.8546603,0.1942619,,-2.87635e-05,,,
8912,	09/25/2022 14:42:10.835,256557,17970,5,25,-0.00999961,3.912857,-0.039127,0.2230298,0.04990683,0.8546603,0.201551,,-1.56865e-05,,,
8979,	09/25/2022 14:53:20.835,257227,18640,5,25,-0.009999955,3.904453,-0.0390444,0.2230298,0.0517676,0.8546603,0.2088241,,-5.13663e-07,,,
9046,	09/25/2022 15:04:30.836,257897,19310,5,25,-0.009999529,3.895739,-0.0389556,0.2230298,0.05362839,0.8546603,0.2160813,,2.88441e-06,,,
9113,	09/25/2022 15:15:40.834,258567,19980,5,25,-0.009999966,3.887387,-0.0388737,0.2230298,0.05548916,0.8546603,0.2233228,,-1.94006e-05,,,
9180,	09/25/2022 15:26:50.835,259237,20650,5,25,-0.009999895,3.879224,-0.0387918,0.2230298,0.05734998,0.8546603,0.2305488,,-2.91998e-05,,,
9247,	09/25/2022 15:38:00.834,259907,21320,5,25,-0.009999849,3.870798,-0.0387074,0.2230298,0.05921074,0.8546603,0.2377592,,1.58061e-07,,,
9314,	09/25/2022 15:49:10.835,260577,21990,5,25,-0.009999959,3.862649,-0.0386263,0.2230298,0.06107152,0.8546603,0.2449545,,-2.82893e-05,,,
9381,	09/25/2022 16:00:20.835,261247.093,22660,5,25,-0.009999938,3.854775,-0.0385475,0.2230298,0.06293222,0.8546603,0.2521344,,5.05765e-06,,,
9448,	09/25/2022 16:11:30.834,261917,23330,5,25,-0.00999967,3.846583,-0.0384646,0.2230298,0.06479289,0.8546603,0.2592992,,-5.53139e-06,,0,
9515,	09/25/2022 16:22:40.834,262587,24000,5,25,-0.009999873,3.838961,-0.0383891,0.2230298,0.06665358,0.8546603,0.2664494,,-3.55616e-06,,,
9582,	09/25/2022 16:33:50.835,263257.093,24670,5,25,-0.009999709,3.831038,-0.0383093,0.2230298,0.06851426,0.8546603,0.273585,,2.96344e-06,,,
9649,	09/25/2022 16:45:00.835,263927,25340,5,25,-0.009999841,3.823448,-0.0382339,0.2230298,0.07037492,0.8546603,0.2807061,,-1.90845e-05,,0,
9716,	09/25/2022 16:56:10.834,264597,26010,5,25,-0.009999678,3.815709,-0.0381559,0.2230298,0.07223558,0.8546603,0.287813,,1.32375e-05,,,
9783,	09/25/2022 17:07:20.835,265267,26680,5,25,-0.009999759,3.80811,-0.0380802,0.2230298,0.07409625,0.8546603,0.2949058,,-2.72655e-06,,0,
9850,	09/25/2022 17:18:30.835,265937,27350,5,25,-0.009999782,3.800828,-0.0380075,0.2230298,0.07595693,0.8546603,0.3019847,,-1.29206e-05,,,
9917,	09/25/2022 17:29:40.835,266607.093,28020,5,25,-0.009999899,3.793255,-0.0379322,0.2230298,0.07781764,0.8546603,0.3090499,,-3.22008e-05,,0,
9984,	09/25/2022 17:40:50.836,267277,28690,5,25,-0.009999817,3.786048,-0.0378598,0.2230298,0.07967841,0.8546603,0.3161016,,-2.18107e-05,,,
10051,	09/25/2022 17:52:00.835,267947.093,29360,5,25,-0.009999966,3.778587,-0.0377857,0.2230298,0.08153914,0.8546603,0.3231394,,,,,0
10118,	09/25/2022 18:03:10.836,268617,30030,5,25,-0.009999895,3.771373,-0.0377133,0.2230298,0.08339996,0.8546603,0.3301639,,1.5804e-06,,,
10185,	09/25/2022 18:14:20.834,269287,30700,5,25,-0.009999743,3.763875,-0.0376378,0.2230298,0.08526074,0.8546603,0.3371746,,,,,
10252,	09/25/2022 18:25:30.835,269957,31370,5,25,-0.009999951,3.756648,-0.0375663,0.2230298,0.08712152,0.8546603,0.3441716,,5.33419e-06,,,0
10319,	09/25/2022 18:36:40.835,270627,32040,5,25,-0.009999739,3.749278,-0.0374918,0.2230298,0.08898231,0.8546603,0.3511549,,,,,
10386,	09/25/2022 18:47:50.836,271297,32710,5,25,-0.00999972,3.741731,-0.0374163,0.2230298,0.0908431,0.8546603,0.3581244,,3.95122e-06,,,
10453,	09/25/2022 18:59:00.834,271967,33380,5,25,-0.009999998,3.734529,-0.0373453,0.2230298,0.09270387,0.8546603,0.3650803,,,,,
10520,	09/25/2022 19:10:10.835,272637,34050,5,25,-0.009999903,3.727558,-0.0372752,0.2230298,0.09456466,0.8546603,0.372023,,2.84488e-06,,,
10587,	09/25/2022 19:21:20.834,273307,34720,5,25,-0.009999778,3.720608,-0.0372053,0.2230298,0.09642546,0.8546603,0.3789527,,-2.3589e-05,,0.277168,
10654,	09/25/2022 19:32:30.834,273977,35390,5,25,-0.00999951,3.714082,-0.037139,0.2230298,0.09828626,0.8546603,0.3858701,,-5.29468e-06,,,
10721,	09/25/2022 19:43:40.835,274647.093,36060,5,25,-0.009999959,3.708186,-0.0370817,0.2230298,0.100147,0.8546603,0.3927757,,-3.3151e-05,,,
10788,	09/25/2022 19:54:50.834,275317,36730,5,25,-0.009999732,3.702274,-0.0370217,0.2230298,0.1020078,0.8546603,0.39967,,-1.25657e-05,,0,0
10855,	09/25/2022 20:06:00.836,275987,37400,5,25,-0.0100001,3.696802,-0.0369684,0.2230298,0.1038685,0.8546603,0.4065538,,-3.22796e-05,,,
10922,	09/25/2022 20:17:10.834,276657,38070,5,25,-0.009999963,3.691801,-0.0369179,0.2230298,0.1057291,0.8546603,0.4134276,,1.45404e-05,,,
10989,	09/25/2022 20:28:20.835,277327.093,38740,5,25,-0.01,3.686905,-0.03686905,0.2230298,0.1075898,0.8546603,0.4202922,,1.75842e-05,,0,0
11056,	09/25/2022 20:39:30.834,277997,39410,5,25,-0.009999951,3.682071,-0.0368205,0.2230298,0.1094505,0.8546603,0.4271478,,-3.16893e-05,,0,
11123,	09/25/2022 20:50:40.835,278667.093,40080,5,25,-0.009999787,3.677653,-0.0367757,0.2230298,0.1113112,0.8546603,0.433995,,0,,,
11190,	09/25/2022 21:01:50.834,279337,40750,5,25,-0.0100001,3.673601,-0.0367364,0.2230298,0.1131718,0.8546603,0.440834,,-2.35495e-05,,,
11257,	09/25/2022 21:13:00.835,280007,41420,5,25,-0.009999881,3.669328,-0.0366928,0.2230298,0.1150325,0.8546603,0.4476655,,-2.29948e-05,,,
11324,	09/25/2022 21:24:10.834,280677,42090,5,25,-0.01000008,3.66559,-0.0366562,0.2230298,0.1168932,0.8546603,0.4544894,,-2.07441e-05,,,
11391,	09/25/2022 21:35:20.836,281347,42760,5,25,-0.00999997,3.661831,-0.0366182,0.2230298,0.1187539,0.8546603,0.4613063,,-3.18471e-05,,,
11458,	09/25/2022 21:46:30.834,282017,43430,5,25,-0.009999732,3.657966,-0.0365787,0.2230298,0.1206146,0.8546603,0.4681163,,-1.43036e-05,,0,
11525,	09/25/2022 21:57:40.834,282687,44100,5,25,-0.009999782,3.654579,-0.036545,0.2230298,0.1224754,0.8546603,0.4749199,,-1.97561e-05,,,
11592,	09/25/2022 22:08:50.836,283357,44770,5,25,-0.009999802,3.65114,-0.0365107,0.2230298,0.1243362,0.8546603,0.481717,,-1.91621e-05,,,
11659,	09/25/2022 22:20:00.835,284027,45440,5,25,-0.01000001,3.647584,-0.0364759,0.2230298,0.126197,0.8546603,0.4885076,,-2.22851e-05,,,1.90341
11726,	09/25/2022 22:31:10.835,284697,46110,5,25,-0.00999983,3.644544,-0.0364448,0.2230298,0.1280578,0.8546603,0.4952921,,-1.88473e-05,,,
11793,	09/25/2022 22:42:20.835,285367,46780,5,25,-0.009999739,3.641208,-0.0364111,0.2230298,0.1299186,0.8546603,0.5020707,,-2.27989e-05,,,
11860,	09/25/2022 22:53:30.835,286037,47450,5,25,-0.009999834,3.638199,-0.0363814,0.2230298,0.1317794,0.8546603,0.5088434,,,,,
11927,	09/25/2022 23:04:40.834,286707,48120,5,25,-0.009999931,3.634982,-0.0363496,0.2230298,0.1336402,0.8546603,0.5156103,,1.7031e-05,,0,
11994,	09/25/2022 23:15:50.834,287377,48790,5,25,-0.009999856,3.63217,-0.0363212,0.2230298,0.1355009,0.8546603,0.5223716,,,,0,
12061,	09/25/2022 23:27:00.835,288047.093,49460,5,25,-0.009999814,3.628953,-0.0362889,0.2230298,0.1373617,0.8546603,0.5291272,,4.70195e-06,,,
12128,	09/25/2022 23:38:10.836,288717,50130,5,25,-0.009999895,3.626101,-0.0362606,0.2230298,0.1392225,0.8546603,0.5358775,,,,,
12195,	09/25/2022 23:49:20.836,289387,50800,5,25,-0.009999827,3.623237,-0.0362317,0.2230298,0.1410833,0.8546603,0.542622,,5.49188e-06,,,
12262,	09/26/2022 00:00:30.836,290057,51470,5,25,-0.009999724,3.620173,-0.0362007,0.2230298,0.1429441,0.8546603,0.5493612,,,,,
12329,	09/26/2022 00:11:40.834,290727,52140,5,25,-0.009999853,3.617359,-0.0361731,0.2230298,0.1448048,0.8546603,0.5560948,,-3.10569e-05,,,
12396,	09/26/2022 00:22:50.835,291397,52810,5,25,-0.009999877,3.614242,-0.036142,0.2230298,0.1466656,0.8546603,0.5628229,,-2.01107e-05,,,
12463,	09/26/2022 00:34:00.835,292067,53480.001,5,25,-0.009999774,3.611442,-0.0361136,0.2230298,0.1485263,0.8546603,0.5695456,,-1.75832e-05,,,
12530,	09/26/2022 00:45:10.835,292737.093,54150,5,25,-0.00999986,3.608304,-0.0360825,0.2230298,0.1503871,0.8546603,0.5762625,,-1.68323e-05,,,
12597,	09/26/2022 00:56:20.834,293407,54820,5,25,-0.00999983,3.605218,-0.0360516,0.2230298,0.1522479,0.8546603,0.5829739,,-2.05453e-05,,,
12664,	09/26/2022 01:07:30.835,294077,55490,5,25,-0.009999951,3.602096,-0.0360208,0.2230298,0.1541086,0.8546603,0.5896794,,-1.64766e-05,,,
12731,	09/26/2022 01:18:40.835,294747,56160,5,25,-0.009999817,3.598599,-0.0359853,0.2230298,0.1559694,0.8546603,0.5963788,,-2.22865e-05,,,0
12798,	09/26/2022 01:29:50.836,295417,56830,5,25,-0.009999821,3.595203,-0.0359514,0.2230298,0.1578302,0.8546603,0.6030719,,-1.84511e-05,,,
12865,	09/26/2022 01:41:00.834,296087,57500,5,25,-0.009999674,3.591567,-0.0359145,0.2230298,0.1596909,0.8546603,0.6097584,,-7.90244e-07,,,
12932,	09/26/2022 01:52:10.835,296757.093,58170,5,25,-0.009999931,3.587441,-0.0358742,0.2230298,0.1615518,0.8546603,0.6164379,,-1.87289e-05,,,
12999,	09/26/2022 02:03:20.834,297427,58840,5,25,-0.00999983,3.583357,-0.035833,0.2230298,0.1634125,0.8546603,0.6231097,,1.70299e-05,,,
13066,	09/26/2022 02:14:30.835,298097.093,59510,5,25,-0.009999782,3.578916,-0.0357884,0.2230298,0.1652733,0.8546603,0.6297736,,4.7023e-06,,0,
13133,	09/26/2022 02:25:40.835,298767,60180,5,25,-0.009999778,3.574648,-0.0357457,0.2230298,0.1671341,0.8546603,0.6364291,,4.46488e-06,,,
13200,	09/26/2022 02:36:50.836,299437,60850,5,25,-0.009999774,3.569921,-0.0356984,0.2230298,0.1689949,0.8546603,0.6430764,,3.47733e-06,,,0
13267,	09/26/2022 02:48:00.835,300107,61520,5,25,-0.00999986,3.565453,-0.035654,0.2230298,0.1708557,0.8546603,0.6497151,,-2.25236e-05,,,
13334,	09/26/2022 02:59:10.835,300777.093,62190,5,25,-0.009999877,3.560563,-0.0356052,0.2230298,0.1727164,0.8546603,0.656345,,-3.23213e-05,,,
13401,	09/26/2022 03:10:20.836,301447,62860,5,25,-0.009999759,3.555841,-0.0355576,0.2230298,0.1745772,0.8546603,0.662966,,-3.161e-07,,,
13468,	09/26/2022 03:21:30.835,302117.093,63530,5,25,-0.009999821,3.55074,-0.0355068,0.2230298,0.176438,0.8546603,0.6695779,,-2.71844e-05,,,
13535,	09/26/2022 03:32:40.836,302787,64200,5,25,-0.009999884,3.545658,-0.0354562,0.2230298,0.1782988,0.8546603,0.6761804,,,,,
13602,	09/26/2022 03:43:50.835,303457,64870,5,25,-0.009999759,3.540834,-0.0354075,0.2230298,0.1801596,0.8546603,0.6827736,,5.88732e-06,,,
13669,	09/26/2022 03:55:00.835,304127,65540,5,25,-0.009999903,3.535678,-0.0353564,0.2230298,0.1820204,0.8546603,0.6893576,,,,,
13736,	09/26/2022 04:06:10.835,304797.093,66210,5,25,-0.009999895,3.530858,-0.0353082,0.2230298,0.1838811,0.8546603,0.6959323,,3.5561e-06,,,
13803,	09/26/2022 04:17:20.834,305467,66880,5,25,-0.009999827,3.525685,-0.0352562,0.2230298,0.1857419,0.8546603,0.7024975,,,,,
13870,	09/26/2022 04:28:30.835,306137,67550,5,25,-0.009999696,3.520458,-0.0352035,0.2230298,0.1876027,0.8546603,0.7090531,,1.11828e-05,,0,
13937,	09/26/2022 04:39:40.834,306807,68220,5,25,-0.009999856,3.514806,-0.0351476,0.2230298,0.1894635,0.8546603,0.7155988,,,,,
14004,	09/26/2022 04:50:50.835,307477.093,68890,5,25,-0.009999853,3.50918,-0.0350913,0.2230298,0.1913242,0.8546603,0.7221339,,-2.58395e-05,,,
14071,	09/26/2022 05:02:00.835,308147.093,69560,5,25,-0.00999972,3.503528,-0.0350343,0.2230298,0.193185,0.8546603,0.7286585,,,,,
14138,	09/26/2022 05:13:10.835,308817,70230,5,25,-0.009999787,3.497527,-0.0349745,0.2230298,0.1950458,0.8546603,0.7351722,,-2.91998e-05,,0,
14205,	09/26/2022 05:24:20.835,309487,70900,5,25,-0.009999935,3.491604,-0.0349158,0.2230298,0.1969066,0.8546603,0.7416748,,-7.34927e-06,,,
14272,	09/26/2022 05:35:30.835,310157.093,71570,5,25,-0.009999841,3.485445,-0.0348539,0.2230298,0.1987674,0.8546603,0.7481663,,-2.11773e-05,,,
14339,	09/26/2022 05:46:40.836,310827,72240,5,25,-0.00999965,3.479012,-0.0347889,0.2230298,0.2006282,0.8546603,0.7546462,,-4.08928e-05,,,
14406,	09/26/2022 05:57:50.834,311497,72910,5,25,-0.00999983,3.472282,-0.0347222,0.2230298,0.202489,0.8546603,0.7611136,,-2.48157e-05,,,
14473,	09/26/2022 06:09:00.835,312167,73580,5,25,-0.009999787,3.464628,-0.0346455,0.2230298,0.2043498,0.8546603,0.7675678,,-2.50509e-05,,0,
14540,	09/26/2022 06:20:10.835,312837,74250,5,25,-0.009999931,3.45676,-0.0345674,0.2230298,0.2062105,0.8546603,0.7740075,,-2.05452e-05,,,
14607,	09/26/2022 06:31:20.836,313507,74920,5,25,-0.009999814,3.448668,-0.034486,0.2230298,0.2080713,0.8546603,0.7804321,,-2.11787e-05,,,
14674,	09/26/2022 06:42:30.835,314177,75590,5,25,-0.009999685,3.440693,-0.0344058,0.2230298,0.2099321,0.8546603,0.7868419,,-2.63134e-05,,,
14741,	09/26/2022 06:53:40.834,314847,76260,5,25,-0.009999739,3.432928,-0.0343284,0.2230298,0.2117928,0.8546603,0.7932371,,-2.73822e-05,,,
14808,	09/26/2022 07:04:50.836,315517,76930,5,25,-0.009999771,3.424669,-0.0342459,0.2230298,0.2136536,0.8546603,0.7996175,,-2.44978e-05,,,
14875,	09/26/2022 07:16:00.835,316187.093,77600,5,25,-0.009999778,3.414651,-0.0341458,0.2230298,0.2155144,0.8546603,0.805981,,-2.59185e-05,,,
14942,	09/26/2022 07:27:10.835,316857.093,78270,5,25,-0.009999635,3.402231,-0.0340211,0.2230298,0.2173751,0.8546603,0.8123237,,-3.94335e-05,,,
15009,	09/26/2022 07:38:20.835,317527,78940,5,25,-0.009999795,3.385532,-0.0338546,0.2230298,0.2192359,0.8546603,0.8186398,,-3.66254e-05,,,
15076,	09/26/2022 07:49:30.835,318197,79610,5,25,-0.009999771,3.36161,-0.0336153,0.2230298,0.2210967,0.8546603,0.8249185,,-5.67757e-05,,0,0
15143,	09/26/2022 08:00:40.835,318867,80280,5,25,-0.009999795,3.328685,-0.0332862,0.2230298,0.2229574,0.8546603,0.8311446,,-6.7882e-05,,0.0509115,
15210,	09/26/2022 08:11:50.836,319537,80950,5,25,-0.00999965,3.287572,-0.0328746,0.2230298,0.2248182,0.8546603,0.8373015,,-8.03296e-05,,,
15277,	09/26/2022 08:23:00.834,320207,81620,5,25,-0.009999732,3.23778,-0.0323769,0.2230298,0.226679,0.8546603,0.843374,,-6.81551e-05,,,
15344,	09/26/2022 08:34:10.835,320877,82290,5,25,-0.009999705,3.17721,-0.0317712,0.2230298,0.2285397,0.8546603,0.8493444,,-0.000104742,,,
15411,	09/26/2022 08:45:20.835,321547,82960,5,25,-0.009999814,3.09956,-0.030995,0.2230298,0.2304005,0.8546603,0.8551874,,-0.000116067,,,
15478,	09/26/2022 08:57:50.872,322297.13,120.0003,5,26,0,3.031975,0,0.2230298,0.2321502,0.8546603,0.8605286,,9.73018e-05,,,
15545,	09/26/2022 09:14:10.913,323277,500.0004,5,27,0.009999719,3.159807,0.0315972,0.2244184,0.2321502,0.8589928,0.8605286,,0.000146788,,,
15612,	09/26/2022 09:25:20.913,323947,1170.001,5,27,0.009999868,3.23495,0.0323491,0.2262792,0.2321502,0.8649461,0.8605286,,8.86446e-05,,,
15679,	09/26/2022 09:36:30.913,324617,1840,5,27,0.009999838,3.292069,0.0329202,0.22814,0.2321502,0.8710207,0.8605286,,6.1754e-05,,,
15746,	09/26/2022 09:47:40.913,325287,2510,5,27,0.009999618,3.338728,0.033386,0.2300007,0.2321502,0.8771912,0.8605286,,4.65062e-05,,0.04333,
15813,	09/26/2022 09:58:50.913,325957,3180,5,27,0.009999573,3.377877,0.0337773,0.2318614,0.2321502,0.8834413,0.8605286,,3.78897e-05,,,
15880,	09/26/2022 10:10:00.913,326627,3850,5,27,0.009999614,3.411331,0.034112,0.2337222,0.2321502,0.8897588,0.8605286,,3.80136e-05,,0,
15947,	09/26/2022 10:21:10.913,327297,4520.001,5,27,0.009999499,3.439916,0.0343974,0.235583,0.2321502,0.8961338,0.8605286,,2.58034e-05,,,
16014,	09/26/2022 10:32:20.913,327967,5190,5,27,0.009999536,3.458403,0.0345824,0.2374437,0.2321502,0.9025541,0.8605286,,3.07428e-05,,,0
16081,	09/26/2022 10:43:30.913,328637,5860,5,27,0.009999756,3.468059,0.0346797,0.2393045,0.2321502,0.908999,0.8605286,,-9.64114e-06,,0,
16148,	09/26/2022 10:54:40.913,329307,6530,5,27,0.009999659,3.47514,0.0347502,0.2411652,0.2321502,0.9154587,0.8605286,,2.22851e-05,,0,
16215,	09/26/2022 11:05:50.913,329977,7200,5,27,0.00999945,3.481563,0.0348137,0.243026,0.2321502,0.9219311,0.8605286,,-1.28424e-05,,,
16282,	09/26/2022 11:17:00.912,330647,7870,5,27,0.009999394,3.488153,0.0348794,0.2448867,0.2321502,0.9284155,0.8605286,,-7.78345e-06,,,
16349,	09/26/2022 11:28:10.913,331317,8540,5,27,0.00999967,3.494549,0.0349443,0.2467474,0.2321502,0.9349118,0.8605286,,-4.2276e-06,,0,
16416,	09/26/2022 11:39:20.913,331987.171,9210,5,27,0.009999637,3.500923,0.035008,0.2486082,0.2321502,0.9414202,0.8605286,,4.22753e-06,,,
16483,	09/26/2022 11:50:30.912,332657,9880,5,27,0.009999506,3.507531,0.0350736,0.2504689,0.2321502,0.9479406,0.8605286,,-1.2564e-05,,,
16550,	09/26/2022 12:01:40.912,333327,10550,5,27,0.009999558,3.513807,0.0351365,0.2523296,0.2321502,0.9544731,0.8605286,,1.71089e-05,,0,
16617,	09/26/2022 12:12:50.913,333997,11220,5,27,0.009999573,3.520228,0.0352008,0.2541904,0.2321502,0.9610175,0.8605286,,1.68719e-05,,,
16684,	09/26/2022 12:24:00.913,334667,11890,5,27,0.009999417,3.526472,0.0352627,0.2560511,0.2321502,0.9675734,0.8605286,,,,,
16751,	09/26/2022 12:35:10.913,335337,12560,5,27,0.00999957,3.532537,0.0353239,0.2579118,0.2321502,0.9741408,0.8605286,,1.33552e-05,,,
16818,	09/26/2022 12:46:20.913,336007,13230,5,27,0.009999536,3.539085,0.0353892,0.2597726,0.2321502,0.98072,0.8605286,,,,,
16885,	09/26/2022 12:57:30.913,336677,13900,5,27,0.009999495,3.545613,0.0354543,0.2616333,0.2321502,0.9873112,0.8605286,,4.4254e-06,,,
16952,	09/26/2022 13:08:40.913,337347,14570,5,27,0.00999951,3.551995,0.0355182,0.263494,0.2321502,0.9939145,0.8605286,,,,,
17019,	09/26/2022 13:19:50.913,338017,15240,5,27,0.009999614,3.558272,0.0355813,0.2653548,0.2321502,1.00053,0.8605286,,-1.0274e-05,,,0
17086,	09/26/2022 13:31:00.913,338687,15910,5,27,0.009999484,3.564558,0.0356437,0.2672155,0.2321502,1.007157,0.8605286,,,,0,
17153,	09/26/2022 13:42:10.912,339357,16580,5,27,0.00999957,3.5704,0.0357025,0.2690762,0.2321502,1.013795,0.8605286,,3.79323e-06,,,0
17220,	09/26/2022 13:53:20.913,340027,17250,5,27,0.009999488,3.576069,0.0357589,0.270937,0.2321502,1.020444,0.8605286,,-6.91418e-06,,,
17287,	09/26/2022 14:04:30.913,340697,17920.001,5,27,0.00999951,3.582021,0.0358185,0.2727977,0.2321502,1.027103,0.8605286,,6.71713e-07,,,
17354,	09/26/2022 14:15:40.912,341367,18590,5,27,0.009999529,3.587667,0.035875,0.2746584,0.2321502,1.033774,0.8605286,,-7.34982e-06,,,
17421,	09/26/2022 14:26:50.913,342037,19260.001,5,27,0.009999525,3.593365,0.0359319,0.2765191,0.2321502,1.040455,0.8605286,,1.5252e-05,,,
17488,	09/26/2022 14:38:00.913,342707,19930,5,27,0.009999618,3.598311,0.0359817,0.2783799,0.2321502,1.047146,0.8605286,,2.17304e-05,,,
17555,	09/26/2022 14:49:10.913,343377,20600,5,27,0.009999555,3.602954,0.0360279,0.2802406,0.2321502,1.053846,0.8605286,,2.68687e-05,,,
17622,	09/26/2022 15:00:20.913,344047,21270,5,27,0.009999432,3.607464,0.0360726,0.2821014,0.2321502,1.060554,0.8605286,,-3.35856e-06,,,
17689,	09/26/2022 15:11:30.913,344717,21940,5,27,0.009999443,3.611515,0.0361131,0.2839621,0.2321502,1.067271,0.8605286,,2.34327e-05,,,
17756,	09/26/2022 15:22:40.912,345387,22610,5,27,0.00999964,3.615724,0.0361559,0.2858228,0.2321502,1.073995,0.8605286,,1.90054e-05,,,
17823,	09/26/2022 15:33:50.912,346057,23280,5,27,0.009999562,3.619473,0.0361931,0.2876836,0.2321502,1.080726,0.8605286,,5.4129e-06,,,0
17890,	09/26/2022 15:45:00.913,346727,23950.001,5,27,0.009999566,3.623192,0.0362303,0.2895443,0.2321502,1.087464,0.8605286,,-1.71473e-05,,,
17957,	09/26/2022 15:56:10.913,347397,24620,5,27,0.009999555,3.626314,0.0362615,0.2914051,0.2321502,1.094209,0.8605286,,2.46163e-05,,,
18024,	09/26/2022 16:07:20.913,348067,25290,5,27,0.009999439,3.629559,0.0362936,0.2932658,0.2321502,1.10096,0.8605286,,9.48238e-07,,0,
18091,	09/26/2022 16:18:30.912,348737,25960,5,27,0.00999926,3.632312,0.0363204,0.2951265,0.2321502,1.107716,0.8605286,,1.11829e-05,,0,
18158,	09/26/2022 16:29:40.913,349407,26630,5,27,0.009999704,3.635332,0.0363522,0.2969872,0.2321502,1.114478,0.8605286,,2.45371e-05,,,
18225,	09/26/2022 16:40:50.913,350077,27300,5,27,0.00999945,3.637906,0.0363771,0.2988479,0.2321502,1.121244,0.8605286,,2.11392e-05,,,
18292,	09/26/2022 16:52:00.913,350747,27970.001,5,27,0.009999331,3.64062,0.0364038,0.3007087,0.2321502,1.128016,0.8605286,,8.77185e-06,,,
18359,	09/26/2022 17:03:10.913,351417,28640,5,27,0.00999954,3.643469,0.036433,0.3025694,0.2321502,1.134793,0.8605286,,,,,
18426,	09/26/2022 17:14:20.913,352087,29310,5,27,0.009999514,3.646027,0.0364585,0.3044301,0.2321502,1.141575,0.8605286,,1.09449e-05,,,
18493,	09/26/2022 17:25:30.913,352757,29980,5,27,0.009999532,3.648666,0.036485,0.3062908,0.2321502,1.148362,0.8605286,,,,,
18560,	09/26/2022 17:36:40.913,353427,30650,5,27,0.009999618,3.651489,0.0365135,0.3081515,0.2321502,1.155153,0.8605286,,1.87291e-05,,,
18627,	09/26/2022 17:47:50.913,354097,31320,5,27,0.009999562,3.65395,0.0365379,0.3100123,0.2321502,1.16195,0.8605286,,,,,
18694,	09/26/2022 17:59:00.912,354767,31990,5,27,0.009999458,3.656831,0.0365663,0.311873,0.2321502,1.168752,0.8605286,,2.24431e-05,,,
18761,	09/26/2022 18:10:10.913,355437,32660,5,27,0.00999954,3.659459,0.0365929,0.3137337,0.2321502,1.175558,0.8605286,,,,,
18828,	09/26/2022 18:21:20.913,356107,33330,5,27,0.00999951,3.662075,0.036619,0.3155944,0.2321502,1.18237,0.8605286,,1.3552e-05,,,
18895,	09/26/2022 18:32:30.913,356777,34000,5,27,0.00999945,3.665036,0.0366483,0.3174551,0.2321502,1.189187,0.8605286,,,,,0
18962,	09/26/2022 18:43:40.913,357447,34670,5,27,0.009999439,3.667699,0.0366749,0.3193159,0.2321502,1.196009,0.8605286,,1.32761e-05,,,
19029,	09/26/2022 18:54:50.914,358117,35340,5,27,0.009999573,3.670521,0.0367036,0.3211765,0.2321502,1.202836,0.8605286,,2.07032e-05,,,
19096,	09/26/2022 19:06:00.913,358787,36010.001,5,27,0.009999476,3.673636,0.0367344,0.3230373,0.2321502,1.209669,0.8605286,,5.13667e-06,,,
19163,	09/26/2022 19:17:10.913,359457,36680,5,27,0.009999491,3.676481,0.0367629,0.324898,0.2321502,1.216507,0.8605286,,2.16529e-05,,,
19230,	09/26/2022 19:28:20.913,360127,37350.001,5,27,0.009999536,3.679502,0.0367933,0.3267587,0.2321502,1.223351,0.8605286,,2.82926e-05,,,
19297,	09/26/2022 19:39:30.913,360797,38020,5,27,0.00999942,3.682902,0.0368269,0.3286194,0.2321502,1.230201,0.8605286,,-2.17333e-06,,,
19364,	09/26/2022 19:50:40.913,361467,38690,5,27,0.009999536,3.685948,0.0368578,0.3304801,0.2321502,1.237056,0.8605286,,1.7346e-05,,,
19431,	09/26/2022 20:01:50.913,362137,39360,5,27,0.009999514,3.689308,0.0368913,0.3323408,0.2321502,1.243918,0.8605286,,2.23231e-05,,0,
19498,	09/26/2022 20:13:00.913,362807,40030,5,27,0.00999957,3.69294,0.0369278,0.3342016,0.2321502,1.250786,0.8605286,,2.9439e-05,,0,
19565,	09/26/2022 20:24:10.914,363477,40700,5,27,0.00999954,3.69634,0.0369617,0.3360623,0.2321502,1.257661,0.8605286,,1.07862e-05,,,
19632,	09/26/2022 20:35:20.913,364147,41370.001,5,27,0.009999383,3.700081,0.0369985,0.337923,0.2321502,1.264542,0.8605286,,2.83303e-05,,0,0
19699,	09/26/2022 20:46:30.913,364817,42040,5,27,0.009999558,3.704106,0.0370394,0.3397837,0.2321502,1.271431,0.8605286,,2.9121e-05,,,
19766,	09/26/2022 20:57:40.913,365487,42710,5,27,0.009999331,3.707933,0.0370768,0.3416445,0.2321502,1.278327,0.8605286,,9.28544e-06,,,
19833,	09/26/2022 21:08:50.913,366157,43380,5,27,0.00999932,3.71233,0.0371208,0.3435052,0.2321502,1.28523,0.8605286,,1.88882e-05,,0,
19900,	09/26/2022 21:20:00.913,366827,44050,5,27,0.009999398,3.716598,0.0371637,0.3453659,0.2321502,1.292141,0.8605286,,-9.56132e-06,,,
19967,	09/26/2022 21:31:10.913,367497,44720,5,27,0.009999271,3.72131,0.0372104,0.3472266,0.2321502,1.299061,0.8605286,,-4.14882e-06,,,
20034,	09/26/2022 21:42:20.913,368167,45390,5,27,0.009999454,3.725991,0.0372579,0.3490873,0.2321502,1.30599,0.8605286,,1.02733e-06,,,
20101,	09/26/2022 21:53:30.912,368837,46060,5,27,0.009999514,3.731016,0.0373083,0.350948,0.2321502,1.312927,0.8605286,,-1.67927e-05,,,
20168,	09/26/2022 22:04:40.912,369507,46730,5,27,0.009999506,3.736598,0.0373641,0.3528087,0.2321502,1.319875,0.8605286,,,,,
20235,	09/26/2022 22:15:50.914,370177.172,47400,5,27,0.009999361,3.742131,0.0374189,0.3546695,0.2321502,1.326833,0.8605286,,1.46593e-05,,,
20302,	09/26/2022 22:27:00.913,370847,48070,5,27,0.00999948,3.748272,0.0374808,0.3565302,0.2321502,1.333802,0.8605286,,,,,
20369,	09/26/2022 22:38:10.913,371517,48740,5,27,0.009999413,3.754697,0.0375448,0.3583908,0.2321502,1.340782,0.8605286,,-8.73234e-06,,0,
20436,	09/26/2022 22:49:20.912,372187,49410,5,27,0.009999294,3.761352,0.0376109,0.3602515,0.2321502,1.347774,0.8605286,,,,,
20503,	09/26/2022 23:00:30.913,372857,50080,5,27,0.00999942,3.768244,0.0376803,0.3621122,0.2321502,1.354779,0.8605286,,2.8767e-05,,,
20570,	09/26/2022 23:11:40.912,373527,50750,5,27,0.009999253,3.775078,0.037748,0.3639729,0.2321502,1.361797,0.8605286,,,,,
20637,	09/26/2022 23:22:50.912,374197,51420,5,27,0.009999443,3.782284,0.0378207,0.3658336,0.2321502,1.368828,0.8605286,,2.35084e-05,,,
20704,	09/26/2022 23:34:00.913,374867,52090.001,5,27,0.009999581,3.789096,0.0378894,0.3676943,0.2321502,1.375872,0.8605286,,,,0,
20771,	09/26/2022 23:45:10.913,375537,52760,5,27,0.009999394,3.796213,0.0379598,0.3695551,0.2321502,1.382929,0.8605286,,-1.28022e-05,,,3.73622
20838,	09/26/2022 23:56:20.913,376207,53430,5,27,0.009999424,3.802998,0.0380278,0.3714158,0.2321502,1.389999,0.8605286,,1.52133e-05,,,
20905,	09/27/2022 00:07:30.912,376877,54100,5,27,0.009999506,3.809893,0.038097,0.3732764,0.2321502,1.397082,0.8605286,,-4.38593e-06,,,0
20972,	09/27/2022 00:18:40.912,377547,54770,5,27,0.009999432,3.816804,0.0381659,0.3751372,0.2321502,1.404177,0.8605286,,2.17317e-06,,,
21039,	09/27/2022 00:29:50.913,378217,55440,5,27,0.009999368,3.823824,0.0382358,0.3769979,0.2321502,1.411286,0.8605286,,2.4931e-05,,,
21106,	09/27/2022 00:41:00.913,378887,56110.001,5,27,0.009999376,3.831134,0.0383089,0.3788586,0.2321502,1.418408,0.8605286,,1.58051e-07,,,
21173,	09/27/2022 00:52:10.913,379557,56780,5,27,0.009999473,3.838176,0.0383797,0.3807193,0.2321502,1.425543,0.8605286,,-1.12612e-05,,,
21240,	09/27/2022 01:03:20.913,380227,57450,5,27,0.009999357,3.845439,0.0384519,0.38258,0.2321502,1.432691,0.8605286,,-6.44059e-06,,0,
21307,	09/27/2022 01:14:30.913,380897,58120,5,27,0.009999361,3.853062,0.0385282,0.3844407,0.2321502,1.439853,0.8605286,,,,,
21374,	09/27/2022 01:25:40.913,381567,58790,5,27,0.009999409,3.860427,0.038602,0.3863014,0.2321502,1.44703,0.8605286,,-1.56468e-05,,,
21441,	09/27/2022 01:36:50.912,382237,59460,5,27,0.009999271,3.868214,0.0386793,0.388162,0.2321502,1.45422,0.8605286,,,,,
21508,	09/27/2022 01:48:00.912,382907,60130,5,27,0.009999506,3.875838,0.0387565,0.3900228,0.2321502,1.461425,0.8605286,,1.90057e-05,,,
21575,	09/27/2022 01:59:10.913,383577,60800.001,5,27,0.009999461,3.883707,0.038835,0.3918835,0.2321502,1.468644,0.8605286,,,,,
21642,	09/27/2022 02:10:20.913,384247,61470,5,27,0.009999417,3.891527,0.038913,0.3937441,0.2321502,1.475877,0.8605286,,3.9315e-05,,,
21709,	09/27/2022 02:21:30.913,384917,62140,5,27,0.009999316,3.899643,0.0389938,0.3956048,0.2321502,1.483126,0.8605286,,2.65524e-05,,,
21776,	09/27/2022 02:32:40.913,385587,62810,5,27,0.009999227,3.907621,0.0390732,0.3974655,0.2321502,1.490389,0.8605286,,3.55616e-06,,,
21843,	09/27/2022 02:43:50.913,386257,63480,5,27,0.009999376,3.915618,0.0391537,0.3993262,0.2321502,1.497667,0.8605286,,2.38262e-05,,,
21910,	09/27/2022 02:55:00.912,386927,64150,5,27,0.009999361,3.923973,0.0392372,0.4011869,0.2321502,1.504961,0.8605286,,3.7932e-06,,,
21977,	09/27/2022 03:06:10.913,387597,64820.001,5,27,0.009999651,3.932047,0.0393191,0.4030476,0.2321502,1.51227,0.8605286,,1.69903e-06,,,0
22044,	09/27/2022 03:17:20.913,388267,65490,5,27,0.009999562,3.940573,0.039404,0.4049083,0.2321502,1.519594,0.8605286,,3.83249e-06,,,
22111,	09/27/2022 03:28:30.913,388937,66160,5,27,0.009999346,3.948812,0.0394855,0.406769,0.2321502,1.526934,0.8605286,,-8.21806e-06,,,
22178,	09/27/2022 03:39:40.913,389607,66830,5,27,0.009999346,3.957124,0.0395687,0.4086297,0.2321502,1.534289,0.8605286,,-7.11225e-06,,,
22245,	09/27/2022 03:50:50.913,390277,67500,5,27,0.009999398,3.965707,0.0396547,0.4104904,0.2321502,1.54166,0.8605286,,8.69276e-07,,,
22312,	09/27/2022 04:02:00.913,390947,68170,5,27,0.009999402,3.974295,0.0397406,0.4123511,0.2321502,1.549047,0.8605286,,-6.71668e-07,,,
22379,	09/27/2022 04:13:10.912,391617,68840,5,27,0.009999491,3.982768,0.0398257,0.4142118,0.2321502,1.55645,0.8605286,,-7.15224e-06,,,
22446,	09/27/2022 04:24:20.913,392287,69510,5,27,0.009999361,3.991385,0.0399113,0.4160725,0.2321502,1.563869,0.8605286,,,,,
22513,	09/27/2022 04:35:30.913,392957,70180.001,5,27,0.00999929,4.00018,0.039999,0.4179332,0.2321502,1.571304,0.8605286,,2.10985e-05,,,
22580,	09/27/2022 04:46:40.913,393627,70850.001,5,27,0.009999499,4.009013,0.0400881,0.4197939,0.2321502,1.578755,0.8605286,,,,,
22647,	09/27/2022 04:57:50.913,394297,71520,5,27,0.009999398,4.017639,0.040174,0.4216546,0.2321502,1.586223,0.8605286,,2.91622e-05,,0,
22714,	09/27/2022 05:09:00.913,394967,72190,5,27,0.009999584,4.02666,0.0402649,0.4235153,0.2321502,1.593707,0.8605286,,,,,
22781,	09/27/2022 05:20:10.913,395637,72860,5,27,0.009999454,4.035593,0.0403537,0.425376,0.2321502,1.601207,0.8605286,,1.10642e-06,,,
22848,	09/27/2022 05:31:20.912,396307,73530,5,27,0.009999361,4.044449,0.0404419,0.4272367,0.2321502,1.608725,0.8605286,,-2.37075e-06,,0,
22915,	09/27/2022 05:42:30.912,396977,74200,5,27,0.009999447,4.053615,0.0405339,0.4290974,0.2321502,1.616259,0.8605286,,-6.87518e-06,,,
22982,	09/27/2022 05:53:40.913,397647,74870,5,27,0.009999376,4.062487,0.0406223,0.4309581,0.2321502,1.623809,0.8605286,,-6.40103e-06,,,
23049,	09/27/2022 06:04:50.913,398317,75540,5,27,0.009999339,4.071815,0.0407155,0.4328188,0.2321502,1.631377,0.8605286,,-6.48005e-06,,,
23116,	09/27/2022 06:16:00.913,398987,76210,5,27,0.009999376,4.08103,0.0408078,0.4346795,0.2321502,1.638962,0.8605286,,-2.29174e-06,,,
23183,	09/27/2022 06:27:10.912,399657,76880,5,27,0.00999945,4.09014,0.0408992,0.4365402,0.2321502,1.646564,0.8605286,,-7.50732e-06,,,
23250,	09/27/2022 06:38:20.914,400327.172,77550,5,27,0.009999435,4.099624,0.0409939,0.4384009,0.2321502,1.654183,0.8605286,,4.58345e-06,,0,
23317,	09/27/2022 06:49:30.913,400997,78220,5,27,0.009999502,4.109056,0.0410885,0.4402615,0.2321502,1.66182,0.8605286,,-1.26439e-06,,,
23384,	09/27/2022 07:00:40.912,401667,78890,5,27,0.009999428,4.11834,0.041181,0.4421223,0.2321502,1.669474,0.8605286,,-6.87512e-06,,,
23451,	09/27/2022 07:11:50.913,402337,79560,5,27,0.009999268,4.127883,0.0412758,0.4439829,0.2321502,1.677146,0.8605286,,8.69333e-07,,,0
23518,	09/27/2022 07:23:00.913,403007,80230.001,5,27,0.009999577,4.137719,0.0413754,0.4458436,0.2321502,1.684836,0.8605286,,-2.21283e-06,,,
23585,	09/27/2022 07:34:10.913,403677,80900,5,27,0.009999551,4.14719,0.04147,0.4477043,0.2321502,1.692544,0.8605286,,-4.26764e-06,,0,
23652,	09/27/2022 07:45:20.913,404347,81570,5,27,0.009999465,4.157007,0.0415678,0.449565,0.2321502,1.70027,0.8605286,,9.16698e-06,,,
23719,	09/27/2022 07:56:30.912,405017,82240,5,27,0.009999391,4.166961,0.0416671,0.4514257,0.2321502,1.708014,0.8605286,,,,,
23786,	09/27/2022 08:07:40.912,405687,82910,5,27,0.009999428,4.176656,0.0417642,0.4532864,0.2321502,1.715776,0.8605286,,4.28316e-05,,,
23853,	09/27/2022 08:18:50.913,406357,83580,5,27,0.009999402,4.186881,0.0418663,0.4551471,0.2321502,1.723557,0.8605286,,,,,
23920,	09/27/2022 08:30:00.914,407027.172,84250,5,27,0.009999525,4.196761,0.0419656,0.4570078,0.2321502,1.731357,0.8605286,,6.40103e-06,,,
23987,	09/27/2022 08:55:22.549,408549,720.0009,6,30,-0.2000245,3.823077,-0.764709,0,0.03999861,0,0.157316,,-0.000260069,,0.193625,5.17409
24054,	09/27/2022 09:28:52.549,410559,2730.001,6,30,-0.2000287,3.454742,-0.691048,0,0.1516611,0,0.5597257,,-9.12316e-05,,0.51098,
24121,	09/27/2022 10:01:59.138,412545,810.0012,6,31,0,3.40257,0,0,0.2170226,0,0.7786902,,1.58435e-05,,0,
24188,	09/27/2022 10:35:29.138,414555,2820,6,31,0,3.424848,0,0,0.2170226,0,0.7786902,,1.89252e-05,,0,
24215,	09/27/2022 10:48:29.139,415335,3600,6,31,0,3.428311,0,0,0.2170226,0,0.7786902,,-1.32763e-05,0.616228,0,0