File: Cell 2.CSV
Data Point,Date Time,Test Time (s),Step Time (s),Cycle Index,Step Index,Current (A),Voltage (V),Power (W),Charge Capacity (Ah),Discharge Capacity (Ah),Charge Energy (Wh),Discharge Energy (Wh),ACR (Ohm),dV/dt (V/s),Internal Resistance (Ohm),dQ/dV (Ah/V),dV/dQ (V/Ah)
1,	09/22/2022 15:27:13.774,60.0001,60.0001,1,1,0,0.131228,0,0,0,0,0,,-4.81065e-06,,,
61,	09/22/2022 16:26:13.776,3600,3600,1,1,0,0.1285691,0,0,0,0,0,,-4.41552e-06,0,0,0
121,	09/22/2022 16:56:13.814,5400.04,1800,1,2,0.00009441311,1.499804,0.000141601,0.000231702,0,0.0003259754,0,,-4.23574e-05,,0,
181,	09/22/2022 17:26:13.814,7200.04,3600,1,2,0.00005490173,1.49999,8.2352e-05,0.0002680492,0,0.0003804968,0,,1.27231e-05,,,
241,	09/22/2022 18:25:13.856,10740.1,3540,1,3,0,1.295199,0,0.0002680493,0,0.000380497,0,,-2.14567e-05,,0,
301,	09/22/2022 19:25:13.855,14340.1,7140,1,3,0,1.219985,0,0.0002680493,0,0.000380497,0,,-1.69114e-05,,0,
361,	09/22/2022 20:25:13.856,17940.1,10740.001,1,3,0,1.170056,0,0.0002680493,0,0.000380497,0,,-1.15186e-05,,0,
421,	09/22/2022 21:25:13.856,21540.1,14340,1,3,0,1.131955,0,0.0002680493,0,0.000380497,0,,-1.5152e-05,,0,
481,	09/22/2022 22:25:13.855,25140.1,17940,1,3,0,1.100589,0,0.0002680493,0,0.000380497,0,,-1.23478e-05,,0,
541,	09/22/2022 23:25:13.855,28740.081,21540,1,3,0,1.073397,0,0.0002680493,0,0.000380497,0,,-6.22327e-06,,0,
601,	09/23/2022 00:25:13.856,32340.1,25140,1,3,0,1.049066,0,0.0002680493,0,0.000380497,0,,-9.89863e-06,,0,
661,	09/23/2022 01:25:13.856,35940.1,28740,1,3,0,1.026544,0,0.0002680493,0,0.000380497,0,,-1.12223e-05,,0,
721,	09/23/2022 02:25:13.856,39540.1,32340,1,3,0,1.005571,0,0.0002680493,0,0.000380497,0,,-1.12012e-05,,0,
781,	09/23/2022 03:25:13.855,43140.1,35940,1,3,0,0.9858651,0,0.0002680493,0,0.000380497,0,,-1.00759e-05,,0,
841,	09/23/2022 04:25:13.855,46740.1,39540,1,3,0,0.9671655,0,0.0002680493,0,0.000380497,0,,-7.64561e-06,,0,
901,	09/23/2022 05:25:13.856,50340.1,43140,1,3,0,0.9494786,0,0.0002680493,0,0.000380497,0,,3.2699e-06,,0,
961,	09/23/2022 05:55:15.189,52141.4,1740,1,5,0.04003721,3.080805,0.123347,0.01961661,0,0.05682484,0,,4.78528e-05,,0,
1021,	09/23/2022 06:25:02.432,53928.7,210.0009,1,7,0,3.142763,0,0.03715491,0,0.1118208,0,,-9.11046e-05,,0,
1081,	09/23/2022 06:54:32.473,55698.7,180.001,1,8,0.04000479,3.142473,0.125714,0.03915476,0,0.1180538,0,,0.000230035,,0.0473651,21.5948
1141,	09/23/2022 07:24:32.473,57498.7,1980,1,8,0.04000616,3.26913,0.130785,0.05915379,0,0.1828002,0,,-4.54394e-06,,0,
1201,	09/23/2022 07:54:32.473,59298.7,3780,1,8,0.04000401,3.308538,0.132355,0.07915238,0,0.2485266,0,,2.93581e-05,,,0
1261,	09/23/2022 08:24:32.473,61098.7,5580,1,8,0.04000235,3.343495,0.133748,0.09915075,0,0.3150688,0,,2.42208e-05,,,0
1321,	09/23/2022 08:54:32.473,62898.7,7380,1,8,0.04000294,3.356005,0.13425,0.119149,0,0.3820905,0,,1.24069e-05,,0,0
1381,	09/23/2022 09:24:32.474,64698.7,9180,1,8,0.0400036,3.363778,0.134563,0.1391467,0,0.4492775,0,,1.55284e-05,,,
1441,	09/23/2022 09:54:32.474,66498.7,10980,1,8,0.04000419,3.37593,0.135051,0.1591447,0,0.5166513,0,,7.46836e-06,,,
1501,	09/23/2022 10:24:32.473,68298.7,12780,1,8,0.04000467,3.402196,0.136104,0.1791428,0,0.584419,0,,1.81373e-05,,0,1.32141
1561,	09/23/2022 10:54:32.473,70098.7,14580.001,1,8,0.04000092,3.425139,0.137009,0.1991411,0,0.652662,0,,3.42184e-05,,,
1621,	09/23/2022 11:24:32.473,71898.7,16380,1,8,0.04000431,3.501194,0.140063,0.2191391,0,0.7217258,0,,8.39918e-05,,,
1681,	09/23/2022 11:53:54.320,73660.5,780.0007,1,10,-0.03998679,3.295185,-0.131764,0.2300464,0.0086631,0.7606235,0.02873088,,1.07862e-05,,,
1741,	09/23/2022 12:23:54.320,75460.5,2580,1,10,-0.0399912,3.285695,-0.131399,0.2300464,0.02865527,0.7606235,0.09453415,,-2.80167e-05,,,0
1801,	09/23/2022 12:53:54.321,77260.5,4380,1,10,-0.03999001,3.26052,-0.130388,0.2300464,0.0486469,0.7606235,0.1599635,,-2.29965e-05,,0.98291,
1861,	09/23/2022 13:23:54.321,79060.5,6180,1,10,-0.03998786,3.251925,-0.130038,0.2300464,0.06863864,0.7606235,0.2250504,,7.90251e-07,,0,0
1921,	09/23/2022 13:53:54.321,80860.5,7980,1,10,-0.03998905,3.241689,-0.129632,0.2300464,0.08863041,0.7606235,0.289975,,-1.85709e-06,,0,
1981,	09/23/2022 14:23:54.321,82660.5,9780,1,10,-0.03999412,3.219552,-0.128763,0.2300464,0.1086223,0.7606235,0.3545808,,3.12172e-06,,0,0
2041,	09/23/2022 14:53:13.115,84419.3,720.0012,1,7,0,3.247291,0,0,0.00000005552123,0.7606235,0.3916223,,1.20505e-05,,,
2101,	09/23/2022 15:22:43.153,86189.4,690.0009,1,8,0.03996867,3.318939,0.132654,0.00765952,0.00000005552123,0.7859349,0.3916223,,2.37867e-05,,,
2161,	09/23/2022 15:52:43.153,87989.4,2490,1,8,0.03997004,3.342676,0.133607,0.02764065,0.00000005552123,0.8525841,0.3916223,,2.34309e-05,,,
2221,	09/23/2022 16:22:43.153,89789.4,4290,1,8,0.03996974,3.34902,0.133859,0.04762232,0.00000005552123,0.9194342,0.3916223,,5.96639e-06,,0,
2281,	09/23/2022 16:52:43.153,91589.4,6090,1,8,0.03996634,3.364731,0.134476,0.06760347,0.00000005552123,0.9864734,0.3916223,,2.61178e-05,,,
2341,	09/23/2022 17:22:43.153,93389.4,7890,1,8,0.03996682,3.38378,0.135239,0.0875842,0.00000005552123,1.053956,0.3916223,,-1.13408e-05,,0,0
2401,	09/23/2022 17:52:43.153,95189.4,9690,1,8,0.03996617,3.39843,0.135822,0.1075651,0.00000005552123,1.121676,0.3916223,,8.29715e-06,,0,
2461,	09/23/2022 18:22:12.396,96958.6,300.0009,1,10,-0.04000789,3.301523,-0.132087,0.1238732,0.003333379,1.178089,0.4027768,,-8.65024e-05,,,
2521,	09/23/2022 18:52:12.396,98758.6,2100.001,1,10,-0.04000491,3.288373,-0.131551,0.1238732,0.02333354,1.178089,0.4686353,,6.83606e-06,,,
2581,	09/23/2022 19:22:12.395,100559,3900,1,10,-0.0400086,3.263715,-0.130577,0.1238732,0.04333338,1.178089,0.5341839,,3.04264e-06,,0,0
2641,	09/23/2022 19:52:12.395,102358.621,5700,1,10,-0.04000723,3.252702,-0.130132,0.1238732,0.06333346,1.178089,0.5993249,,1.45793e-05,,0,
2701,	09/23/2022 20:22:12.395,104159,7500,1,10,-0.04000831,3.2435,-0.129767,0.1238732,0.08333359,1.178089,0.6642975,,-6.36157e-06,,0,
2761,	09/23/2022 20:52:12.395,105959,9300,1,10,-0.04000401,3.222613,-0.128917,0.1238732,0.1033336,1.178089,0.7289808,,-3.76539e-05,,0,
2821,	09/23/2022 21:21:20.298,107707,450.0001,1,7,0,3.245513,0,0,0.0000000544593,1.178089,0.7753067,,1.71089e-05,,0,
2881,	09/23/2022 21:50:50.337,109477,420.0011,1,8,0.03998417,3.311296,0.132399,0.004664264,0.0000000544593,1.193481,0.7753067,,4.65887e-05,,,
2941,	09/23/2022 22:20:50.337,111277,2220,1,8,0.03998631,3.342178,0.133641,0.02465401,0.0000000544593,1.260093,0.7753067,,-7.23085e-06,,,
3001,	09/23/2022 22:50:50.337,113077,4020,1,8,0.03998446,3.348396,0.133884,0.0446435,0.0000000544593,1.32696,0.7753067,,2.1259e-05,,,
3061,	09/23/2022 23:20:50.337,114877,5820,1,8,0.03998464,3.363699,0.134496,0.06463317,0.0000000544593,1.394013,0.7753067,,6.91429e-06,,,
3121,	09/23/2022 23:50:50.337,116677,7620,1,8,0.03998756,3.383879,0.135313,0.0846229,0.0000000544593,1.461511,0.7753067,,7.42885e-06,,0,
3181,	09/24/2022 00:20:50.337,118477,9420.001,1,8,0.03998512,3.397055,0.135832,0.1046125,0.0000000544593,1.529254,0.7753067,,3.77715e-05,,0,
3241,	09/24/2022 00:50:00.966,120227,300.0009,1,10,-0.04000646,3.300307,-0.132034,0.1207214,0.00333341,1.584745,0.7864586,,-7.41261e-05,,,
3301,	09/24/2022 01:20:00.965,122027,2100,1,10,-0.04000467,3.287342,-0.131509,0.1207214,0.02333331,1.584745,0.8523024,,-1.6952e-05,,,
3361,	09/24/2022 01:50:00.965,123827,3900,1,10,-0.04000556,3.262827,-0.130531,0.1207214,0.04333318,1.584745,0.9178265,,-2.71469e-05,,,
3421,	09/24/2022 02:20:00.965,125627,5700,1,10,-0.04000443,3.252209,-0.130103,0.1207214,0.06333332,1.584745,0.9829546,,-1.85326e-05,,,0
3481,	09/24/2022 02:50:00.966,127427,7500.001,1,10,-0.04000634,3.242153,-0.129707,0.1207214,0.08333356,1.584745,1.047909,,-4.89959e-06,,0,
3541,	09/24/2022 03:20:00.966,129227,9300,1,10,-0.04000604,3.22083,-0.128853,0.1207214,0.1033332,1.584745,1.112557,,-1.19723e-05,,,
3601,	09/24/2022 03:49:04.338,130971,570.0009,1,7,0,3.248097,0,0,0.00000005889062,1.584745,1.154423,,2.02696e-05,,0,
3661,	09/24/2022 04:18:34.376,132741,540.001,1,8,0.03998756,3.316887,0.132634,0.005996817,0.00000005889062,1.604562,1.154423,,2.86485e-05,,0.31064,
3721,	09/24/2022 04:48:34.376,134541,2340,1,8,0.03998649,3.342898,0.133671,0.02598648,0.00000005889062,1.67123,1.154423,,-2.41436e-05,,0,
3781,	09/24/2022 05:18:34.375,136340.601,4140,1,8,0.03998405,3.349638,0.133932,0.04597618,0.00000005889062,1.738116,1.154423,,-7.54689e-06,,,
3841,	09/24/2022 05:48:34.375,138140.601,5940,1,8,0.0399859,3.368449,0.13469,0.065966,0.00000005889062,1.805219,1.154423,,1.47392e-05,,,
3901,	09/24/2022 06:18:34.376,139941,7740,1,8,0.03998697,3.385422,0.135373,0.08595565,0.00000005889062,1.872776,1.154423,,1.63977e-05,,,
3961,	09/24/2022 06:48:34.375,141740.601,9540,1,8,0.03998506,3.403421,0.136086,0.1059451,0.00000005889062,1.940578,1.154423,,3.37835e-05,,,
4021,	09/24/2022 07:17:58.267,143504.493,660.0009,1,10,-0.04000646,3.293717,-0.13177,0.1182034,0.007333322,1.982929,1.178753,,8.33666e-06,,,
4081,	09/24/2022 07:47:58.266,145304,2460,1,10,-0.04000509,3.282949,-0.131335,0.1182034,0.02733279,1.982929,1.244542,,-1.97971e-05,,1.28073,
4141,	09/24/2022 08:17:58.266,147104,4260,1,10,-0.04000628,3.258378,-0.130356,0.1182034,0.04733244,1.982929,1.309941,,5.09745e-06,,,
4201,	09/24/2022 08:47:58.267,148904,6060.001,1,10,-0.04000598,3.250174,-0.130026,0.1182034,0.06733242,1.982929,1.37502,,-1.99523e-05,,0,0
4261,	09/24/2022 09:17:58.267,150704,7860,1,10,-0.04000652,3.237649,-0.129527,0.1182034,0.08733232,1.982929,1.439915,,3.00315e-06,,,
4321,	09/24/2022 09:47:58.266,152504,9660,1,10,-0.04000366,3.213624,-0.128557,0.1182034,0.1073323,1.982929,1.504442,,1.07473e-05,,,
4381,	09/24/2022 10:17:02.745,154249,1050,1,7,0,3.253144,0,0,0.00000002333654,1.982929,1.529189,,1.57646e-05,,0,
4441,	09/24/2022 10:47:02.784,156049,1050,1,8,0.03998643,3.332396,0.133251,0.01166101,0.00000002333654,2.021591,1.529189,,7.90198e-08,,,0
4501,	09/24/2022 11:17:02.785,157849,2850,1,8,0.03998542,3.344697,0.133739,0.03165035,0.00000002333654,2.088369,1.529189,,1.42236e-06,,,
4561,	09/24/2022 11:47:02.786,159649,4650,1,8,0.0399859,3.353185,0.13408,0.05163971,0.00000002333654,2.155302,1.529189,,-1.29988e-05,,,
4621,	09/24/2022 12:17:02.785,161449,6450,1,8,0.03998613,3.378408,0.135089,0.07162929,0.00000002333654,2.222553,1.529189,,1.92426e-05,,0,0
4681,	09/24/2022 12:47:02.785,163249,8250.001,1,8,0.03998667,3.388962,0.135513,0.09161887,0.00000002333654,2.2902,1.529189,,1.65944e-05,,,
4741,	09/24/2022 13:17:02.785,165049,10050,1,8,0.03998631,3.442337,0.137646,0.1116077,0.00000002333654,2.358224,1.529189,,0.000138124,,,
4801,	09/24/2022 13:46:15.435,166802,1320,1,10,-0.04001802,3.290821,-0.131692,0.1164112,0.01467117,2.375076,1.577673,,-2.60785e-06,,,
4861,	09/24/2022 14:16:15.435,168602,3120,1,10,-0.04001999,3.272408,-0.130962,0.1164112,0.03467727,2.375076,1.643366,,-2.99505e-05,,0.691216,
4921,	09/24/2022 14:46:15.436,170402,4920.001,1,10,-0.04002005,3.254447,-0.130243,0.1164112,0.05468373,2.375076,1.708611,,-2.53292e-05,,,
4981,	09/24/2022 15:16:15.435,172201.661,6720,1,10,-0.0400188,3.246231,-0.12991,0.1164112,0.07469048,2.375076,1.773645,,-8.9305e-06,,0,
5041,	09/24/2022 15:46:15.436,174002,8520,1,10,-0.04001939,3.228627,-0.129208,0.1164112,0.09469648,2.375076,1.838436,,2.12958e-05,,0,
5101,	09/24/2022 16:15:39.185,175765,30.0009,1,7,0,3.229781,0,0,0.00000006447131,2.375076,1.900399,,0.000204915,,,
5161,	09/24/2022 16:45:09.186,177535,1800,1,7,0,3.25755,0,0,0.00000006447131,2.375076,1.900399,,-2.14145e-05,0.728214,0,0
5221,	09/24/2022 17:15:09.225,179335,1800,1,8,0.03998339,3.341016,0.133585,0.01998924,0.00000006447131,2.441542,1.900399,,1.93994e-05,,0,0
5281,	09/24/2022 17:45:09.225,181135,3600,1,8,0.03998506,3.347696,0.133858,0.03997831,0.00000006447131,2.508393,1.900399,,6.51957e-06,,,
5341,	09/24/2022 18:15:09.226,182935,5400,1,8,0.03998321,3.361479,0.134403,0.05996708,0.00000006447131,2.575419,1.900399,,2.12974e-05,,0,
5401,	09/24/2022 18:45:09.225,184735,7200,1,8,0.03998756,3.384135,0.135323,0.07995601,0.00000006447131,2.64289,1.900399,,1.38295e-05,,,
5461,	09/24/2022 19:15:09.226,186535,9000,1,8,0.03998709,3.398112,0.135881,0.09994579,0.00000006447131,2.710646,1.900399,,3.72628e-05,,0,0
5521,	09/24/2022 19:44:19.649,188286,390.0009,1,11,0,3.405835,0,0.1150531,0.00000006447131,2.762647,1.900399,,-8.35196e-05,,0,
5581,	09/24/2022 20:14:19.649,190086,2190.001,1,11,0,3.358122,0,0.1150531,0.00000006447131,2.762647,1.900399,,-9.36517e-06,,,
5641,	09/24/2022 20:44:19.649,191886,3990,1,11,0,3.348977,0,0.1150531,0.00000006447131,2.762647,1.900399,,-9.24539e-06,,0,
5701,	09/24/2022 21:14:19.649,193686,5790.001,1,11,0,3.34485,0,0.1150531,0.00000006447131,2.762647,1.900399,,3.27951e-06,,,
5761,	09/24/2022 21:44:19.649,195486,7590.001,1,11,0,3.342241,0,0.1150531,0.00000006447131,2.762647,1.900399,,5.29477e-06,,0,
5821,	09/24/2022 22:14:19.649,197286,9390.001,1,11,0,3.340499,0,0.1150531,0.00000006447131,2.762647,1.900399,,-9.32496e-06,,,
5881,	09/24/2022 22:43:49.690,199056,360,1,12,-0.04000568,3.290533,-0.13164,0.1150531,0.0039999,2.762647,1.913579,,-1.38688e-05,,0,0
5941,	09/24/2022 23:13:49.690,200856,2160,1,12,-0.04000908,3.278473,-0.131169,0.1150531,0.02399959,2.762647,1.979299,,-3.15702e-05,,0,
6001,	09/24/2022 23:43:49.691,202655.917,3960,1,12,-0.04000831,3.257568,-0.13033,0.1150531,0.04399953,2.762647,2.044629,,-1.94403e-05,,,
6061,	09/25/2022 00:13:49.690,204456,5760,1,12,-0.04000676,3.249168,-0.129989,0.1150531,0.06399964,2.762647,2.109694,,3.55613e-07,,,0
6121,	09/25/2022 00:43:49.691,206256,7560,1,12,-0.04000598,3.23609,-0.129463,0.1150531,0.08399981,2.762647,2.174565,,-1.06689e-06,,,0
6181,	09/25/2022 01:13:49.691,208055.917,9360,1,12,-0.04000759,3.211522,-0.128485,0.1150531,0.1039994,2.762647,2.239056,,-6.12449e-06,,,
6241,	09/25/2022 01:43:49.691,209855.917,11160,1,12,-0.04000682,3.170497,-0.126842,0.1150531,0.1239993,2.762647,2.302906,,-1.6121e-05,,,
6301,	09/25/2022 02:13:49.690,211656,12960,1,12,-0.04000556,3.100316,-0.12403,0.1150531,0.1439994,2.762647,2.365895,,-0.00013302,,,
6361,	09/25/2022 02:43:49.692,213456,14760,1,12,-0.04000759,2.511099,-0.100463,0.1150531,0.1639996,2.762647,2.424033,,-0.0012022,,0.00991267,99.4789
6421,	09/25/2022 04:07:02.081,218448,1380,1,17,0.1000127,3.361907,0.336233,0.03833221,0.0000000000105732,2.888972,2.424304,,6.15965e-05,,,
6481,	09/25/2022 04:37:02.082,220248,3180,1,17,0.1000131,3.404913,0.340536,0.08833197,0.0000000000105732,3.058213,2.424304,,1.53702e-05,,,
6541,	09/25/2022 05:07:02.081,222048,4980,1,17,0.1000146,3.483215,0.348372,0.1383308,0.0000000000105732,3.229832,2.424304,,0.00016254,,0.208571,
6601,	09/25/2022 05:37:02.082,223848,6780,1,17,0.01933093,3.650014,0.0705582,0.1703162,0.0000000000105732,3.344826,2.424304,,-2.66694e-05,,0,
6661,	09/25/2022 06:06:58.571,225645,180,1,18,0,3.500196,0,0.1764857,0.0000000000105732,3.367345,2.424304,,-0.000264561,,,
6721,	09/25/2022 06:36:58.613,227445,1380,1,19,-0.1000159,3.229635,-0.323015,0.1764857,0.03833437,3.367345,2.548821,,-3.51685e-05,,,
6781,	09/25/2022 07:06:58.611,229245,3180,1,19,-0.1000178,3.196382,-0.319695,0.1764857,0.08833437,3.367345,2.709472,,-3.6826e-05,,,
6841,	09/25/2022 07:36:58.611,231045,4980,1,19,-0.100017,3.12543,-0.312596,0.1764857,0.1383348,3.367345,2.86781,,-3.66281e-05,,,
6901,	09/25/2022 08:06:41.363,232827.589,480.001,1,20,0,2.887338,0,0.1764857,0.1745217,3.367345,2.975905,,0.000180889,,,
6961,	09/25/2022 08:35:12.710,234539,1590,2,17,0.1000127,3.360372,0.33608,0.04416423,0,0.1450249,0,,3.72609e-05,,0.516597,
7021,	09/25/2022 09:05:12.710,236339,3390,2,17,0.1000149,3.397714,0.339822,0.09416155,0,0.3140604,0,,4.35852e-05,,,0
7081,	09/25/2022 09:35:12.710,238139,5190,2,17,0.1000155,3.443656,0.344419,0.1441616,0,0.4850154,0,,3.25586e-05,,0,0
7141,	09/25/2022 10:05:06.006,239932,150.0002,2,18,0,3.509529,0,0.1758035,0,0.5965001,0,,-0.000229903,,0,
7201,	09/25/2022 10:34:36.048,241702,1320,2,19,-0.1000178,3.233081,-0.323366,0.1758035,0.03666647,0.5965001,0.1191983,,-3.41016e-05,,0,0
7261,	09/25/2022 11:04:36.048,243502,3120,2,19,-0.1000144,3.199657,-0.320012,0.1758035,0.08666733,0.5965001,0.2799873,,-3.75372e-05,,0,
7321,	09/25/2022 11:34:36.048,245302,4920,2,19,-0.1000147,3.131372,-0.313183,0.1758035,0.1366664,0.5965001,0.4385672,,-6.04587e-05,,,1.92644
7381,	09/25/2022 12:04:32.872,247099,420.001,2,20,0,2.869336,0,0.1758035,0.1749091,0.5965001,0.553228,,0.000197213,,,
7441,	09/25/2022 12:33:04.217,248810,1530,3,17,0.1000178,3.356483,0.335708,0.0424994,0.000000000003771648,0.1393531,0.00000000001091782,,4.46861e-05,,0.478442,2.21861
7501,	09/25/2022 13:03:04.216,250610,3330,3,17,0.1000121,3.394971,0.339538,0.09249896,0.000000000003771648,0.3083013,0.00000000001091782,,3.66284e-05,,,0
7561,	09/25/2022 13:33:04.217,252410,5130.001,3,17,0.1000152,3.438221,0.343874,0.1424985,0.000000000003771648,0.4790967,0.00000000001091782,,4.29928e-05,,,
7621,	09/25/2022 14:02:58.788,254205,240.001,3,18,0,3.492292,0,0.1757416,0.000000000003771648,0.5956168,0.00000000001091782,,-0.000192344,,,
7681,	09/25/2022 14:32:28.828,255975,1410.001,3,19,-0.1000132,3.231115,-0.323154,0.1757416,0.03916589,0.5956168,0.1272755,,-9.04837e-06,,,
7741,	09/25/2022 15:02:28.827,257775,3210,3,19,-0.1000144,3.197722,-0.319818,0.1757416,0.0891651,0.5956168,0.2879729,,-3.85247e-05,,,0
7801,	09/25/2022 15:32:28.827,259575.053,5010,3,19,-0.1000143,3.126747,-0.312719,0.1757416,0.1391642,0.5956168,0.4463734,,-4.48046e-05,,0.524765,
7861,	09/25/2022 16:02:02.573,261349,480.0011,3,20,0,2.871875,0,0.1757416,0.1750997,0.5956168,0.5538378,,0.000162924,,,
7921,	09/25/2022 16:30:33.922,263060,1590.001,4,17,0.1000146,3.359311,0.33598,0.04416655,0.000000000001519918,0.1449022,0.000000000004388809,,5.60292e-05,,0.510252,2.08542
7981,	09/25/2022 17:00:33.921,264860,3390,4,17,0.1000181,3.396234,0.339685,0.09416676,0.000000000001519918,0.3139127,0.000000000004388809,,3.91174e-06,,0,0
8041,	09/25/2022 17:30:33.922,266660,5190,4,17,0.1000187,3.439954,0.34406,0.1441674,0.000000000001519918,0.4847714,0.000000000004388809,,4.02609e-05,,0.856711,
8101,	09/25/2022 18:00:13.160,268439,360.0009,4,18,0,3.476616,0,0.1757764,0.000000000001519918,0.5955662,0.000000000004388809,,-0.000136285,,,
8161,	09/25/2022 18:29:43.199,270209.425,1530,4,19,-0.1000322,3.228409,-0.322945,0.1757764,0.04250662,0.5955662,0.1380644,,-2.81745e-05,,0,
8221,	09/25/2022 18:59:43.199,272009,3330,4,19,-0.1000299,3.194839,-0.319579,0.1757764,0.09251455,0.5955662,0.2986779,,-2.7815e-05,,0,
8281,	09/25/2022 19:29:43.200,273809.426,5130,4,19,-0.100033,3.119299,-0.312033,0.1757764,0.1425227,0.5955662,0.4568569,,-7.61469e-05,,,
8341,	09/25/2022 19:59:15.908,275582,600.0001,4,20,0,2.883846,0,0.1757764,0.1751014,0.5955662,0.5538402,,0.000134997,,,
8401,	09/25/2022 20:27:47.256,277293,1710,5,23,0.1000186,3.365004,0.336563,0.04749981,0.00000000002619292,0.1560979,0.00000000007554328,,5.37415e-05,,0,
8461,	09/25/2022 20:57:47.256,279093,3510,5,23,0.1000183,3.399245,0.339987,0.09749975,0.00000000002619292,0.3252318,0.00000000007554328,,7.90205e-07,,0,0
8521,	09/25/2022 21:27:47.256,280893,5310,5,23,0.1000165,3.444905,0.344547,0.1474995,0.00000000002619292,0.4962384,0.00000000007554328,,3.05809e-05,,0,
8581,	09/25/2022 21:57:42.746,282689,540.0009,5,24,0,3.460756,0,0.1756833,0.00000000002619292,0.5951962,0.00000000007554328,,-8.71614e-05,,,
8641,	09/25/2022 22:08:12.787,283319,570.001,5,25,-0.01000055,3.347411,-0.033476,0.1756833,0.001583153,0.5951962,0.005357296,,-7.39675e-05,,,
8701,	09/25/2022 22:18:12.786,283919,1170,5,25,-0.01000043,3.32055,-0.0332069,0.1756833,0.003249635,0.5951962,0.01090808,,-2.90417e-05,,,
8761,	09/25/2022 22:28:12.786,284519,1770,5,25,-0.01000056,3.315852,-0.0331604,0.1756833,0.004916125,0.5951962,0.01643636,,1.24465e-05,,,
8821,	09/25/2022 22:38:12.786,285119,2370,5,25,-0.01000052,3.315277,-0.0331545,0.1756833,0.006582613,0.5951962,0.02196157,,-6.99418e-06,,,
8881,	09/25/2022 22:48:12.787,285719,2970,5,25,-0.01000034,3.315018,-0.0331513,0.1756833,0.008249114,0.5951962,0.0274864,,1.03524e-05,,,
8941,	09/25/2022 22:58:12.787,286319.013,3570,5,25,-0.01000043,3.314703,-0.0331485,0.1756833,0.009915588,0.5951962,0.03301071,,1.96785e-05,,0,
9001,	09/25/2022 23:08:12.786,286919,4170,5,25,-0.01000039,3.314502,-0.0331463,0.1756833,0.01158207,0.5951962,0.03853448,,1.90463e-05,,,
9061,	09/25/2022 23:18:12.787,287519.013,4770,5,25,-0.01000066,3.314086,-0.033143,0.1756833,0.01324855,0.5951962,0.04405756,,,,,0
9121,	09/25/2022 23:28:12.787,288119.013,5370,5,25,-0.01000054,3.313552,-0.0331373,0.1756833,0.01491503,0.5951962,0.04957988,,-3.87223e-06,,,0
9181,	09/25/2022 23:38:12.787,288719.013,5970,5,25,-0.01000054,3.313091,-0.0331327,0.1756833,0.01658152,0.5951962,0.05510147,,-2.60781e-06,,,
9241,	09/25/2022 23:48:12.787,289319,6570,5,25,-0.01000051,3.312543,-0.0331271,0.1756833,0.01824798,0.5951962,0.06062219,,-2.01526e-05,,,
9301,	09/25/2022 23:58:12.787,289919.013,7170,5,25,-0.01000053,3.31205,-0.0331223,0.1756833,0.01991444,0.5951962,0.06614213,,-6.04542e-06,,0,
9361,	09/26/2022 00:08:12.787,290519,7770,5,25,-0.01000048,3.311622,-0.0331178,0.1756833,0.0215809,0.5951962,0.07166128,,-1.75829e-05,,,
9421,	09/26/2022 00:18:12.786,291119,8370,5,25,-0.01000046,3.311255,-0.0331141,0.1756833,0.02324737,0.5951962,0.07717965,,-2.51711e-05,,,
9481,	09/26/2022 00:28:12.786,291719,8970,5,25,-0.01000057,3.310751,-0.0331094,0.1756833,0.02491382,0.5951962,0.08269715,,,,,
9541,	09/26/2022 00:38:12.787,292319.013,9570,5,25,-0.01000045,3.31019,-0.0331034,0.1756833,0.02658028,0.5951962,0.08821377,,-1.39479e-05,,,
9601,	09/26/2022 00:48:12.787,292919,10170,5,25,-0.01000065,3.309508,-0.0330972,0.1756833,0.02824676,0.5951962,0.09372944,,1.07475e-05,,0,
9661,	09/26/2022 00:58:12.786,293519,10770,5,25,-0.01000054,3.308609,-0.0330879,0.1756833,0.02991326,0.5951962,0.09924395,,-1.48961e-05,,,
9721,	09/26/2022 01:08:12.786,294119,11370,5,25,-0.01000055,3.307593,-0.0330777,0.1756833,0.0315797,0.5951962,0.1047569,,,,,
9781,	09/26/2022 01:18:12.786,294719,11970,5,25,-0.01000062,3.306389,-0.0330659,0.1756833,0.03324618,0.5951962,0.1102681,,1.33165e-05,,,
9841,	09/26/2022 01:28:12.786,295319,12570,5,25,-0.01000054,3.304777,-0.0330496,0.1756833,0.03491265,0.5951962,0.1157769,,-1.65154e-05,,,
9901,	09/26/2022 01:38:12.787,295919,13170.001,5,25,-0.01000069,3.302685,-0.0330291,0.1756833,0.03657913,0.5951962,0.1212827,,,,,0
9961,	09/26/2022 01:48:12.786,296519,13770,5,25,-0.0100005,3.300012,-0.0330018,0.1756833,0.03824561,0.5951962,0.1267846,,-1.2724e-05,,,0
10021,	09/26/2022 01:58:12.787,297119,14370,5,25,-0.01000058,3.296528,-0.0329672,0.1756833,0.03991212,0.5951962,0.1322812,,-9.91822e-06,,0,
10081,	09/26/2022 02:08:12.786,297719,14970,5,25,-0.01000058,3.292231,-0.0329242,0.1756833,0.0415786,0.5951962,0.1377713,,-5.61036e-06,,,
10141,	09/26/2022 02:18:12.786,298319,15570,5,25,-0.01000058,3.288155,-0.0328835,0.1756833,0.04324507,0.5951962,0.1432543,,,,,
10201,	09/26/2022 02:28:12.786,298919,16170,5,25,-0.0100004,3.284836,-0.0328497,0.1756833,0.04491156,0.5951962,0.1487311,,8.25812e-06,,,
10261,	09/26/2022 02:38:12.786,299519,16770,5,25,-0.01000045,3.282601,-0.0328275,0.1756833,0.04657805,0.5951962,0.1542034,,-1.57664e-05,,,0
10321,	09/26/2022 02:48:12.787,300119,17370,5,25,-0.01000054,3.281272,-0.0328145,0.1756833,0.04824454,0.5951962,0.1596726,,1.44615e-05,,,0
10381,	09/26/2022 02:58:12.788,300719,17970,5,25,-0.01000061,3.28018,-0.0328038,0.1756833,0.04991103,0.5951962,0.1651398,,1.04715e-05,,,
10441,	09/26/2022 03:08:12.787,301319.013,18570,5,25,-0.01000051,3.279274,-0.0327944,0.1756833,0.05157753,0.5951962,0.1706055,,6.00585e-06,,0,
10501,	09/26/2022 03:18:12.786,301919,19170,5,25,-0.01000047,3.278708,-0.0327886,0.1756833,0.05324404,0.5951962,0.17607,,-1.3119e-05,,,
10561,	09/26/2022 03:28:12.787,302519.013,19770,5,25,-0.01000044,3.278168,-0.0327831,0.1756833,0.05491052,0.5951962,0.1815336,,,,,
10621,	09/26/2022 03:38:12.787,303119.013,20370,5,25,-0.01000055,3.277767,-0.0327795,0.1756833,0.056577,0.5951962,0.1869964,,-7.30976e-06,,,
10681,	09/26/2022 03:48:12.787,303719.013,20970,5,25,-0.01000043,3.277494,-0.0327763,0.1756833,0.05824349,0.5951962,0.1924585,,-1.16956e-05,,,
10741,	09/26/2022 03:58:12.786,304319,21570,5,25,-0.01000048,3.277183,-0.0327734,0.1756833,0.05990999,0.5951962,0.19792,,1.36319e-05,,,
10801,	09/26/2022 04:08:12.786,304919,22170,5,25,-0.01000044,3.276832,-0.0327698,0.1756833,0.06157647,0.5951962,0.203381,,-7.94208e-06,,0,
10861,	09/26/2022 04:18:12.786,305519,22770,5,25,-0.01000053,3.276573,-0.0327675,0.1756833,0.06324298,0.5951962,0.2088415,,2.9241e-06,,,
10921,	09/26/2022 04:28:12.787,306119.013,23370,5,25,-0.01000038,3.27615,-0.0327627,0.1756833,0.06490945,0.5951962,0.2143014,,-1.15772e-05,,,
10981,	09/26/2022 04:38:12.786,306719,23970,5,25,-0.01000057,3.275839,-0.0327603,0.1756833,0.06657594,0.5951962,0.2197609,,,,,
11041,	09/26/2022 04:48:12.786,307319,24570,5,25,-0.0100006,3.275616,-0.0327581,0.1756833,0.06824243,0.5951962,0.22522,,-1.3356e-05,,,
11101,	09/26/2022 04:58:12.787,307919,25170,5,25,-0.01000047,3.275407,-0.0327556,0.1756833,0.06990892,0.5951962,0.2306786,,-1.18149e-05,,0,
11161,	09/26/2022 05:08:12.787,308519.013,25770,5,25,-0.01000049,3.275201,-0.0327536,0.1756833,0.07157542,0.5951962,0.2361368,,4.50439e-06,,,
11221,	09/26/2022 05:18:12.786,309119,26370,5,25,-0.01000043,3.274969,-0.0327511,0.1756833,0.07324191,0.5951962,0.2415945,,-1.16958e-05,,,
11281,	09/26/2022 05:28:12.787,309719.013,26970,5,25,-0.01000048,3.274691,-0.0327485,0.1756833,0.0749084,0.5951962,0.2470518,,9.48356e-06,,,0
11341,	09/26/2022 05:38:12.786,310319,27570,5,25,-0.01000058,3.274234,-0.0327442,0.1756833,0.07657488,0.5951962,0.2525087,,-6.24257e-06,,,0
11401,	09/26/2022 05:48:12.786,310919,28170,5,25,-0.01000045,3.273973,-0.0327412,0.1756833,0.07824135,0.5951962,0.257965,,,,,
11461,	09/26/2022 05:58:12.786,311519,28770,5,25,-0.01000048,3.273693,-0.0327385,0.1756833,0.07990784,0.5951962,0.2634209,,1.05499e-05,,0,
11521,	09/26/2022 06:08:12.787,312119.013,29370,5,25,-0.01000054,3.273375,-0.0327355,0.1756833,0.08157434,0.5951962,0.2688763,,-1.28811e-05,,,
11581,	09/26/2022 06:18:12.787,312719,29970,5,25,-0.01000045,3.273027,-0.0327317,0.1756833,0.08324083,0.5951962,0.2743312,,6.71674e-07,,,
11641,	09/26/2022 06:28:12.786,313319,30570,5,25,-0.01000048,3.272621,-0.0327278,0.1756833,0.08490732,0.5951962,0.2797854,,1.48567e-05,,,
11701,	09/26/2022 06:38:12.787,313919.013,31170,5,25,-0.01000038,3.272262,-0.0327239,0.1756833,0.08657382,0.5951962,0.285239,,-1.05096e-05,,,
11761,	09/26/2022 06:48:12.786,314519,31770,5,25,-0.0100003,3.271871,-0.0327197,0.1756833,0.0882403,0.5951962,0.2906919,,1.55688e-05,,,
11821,	09/26/2022 06:58:12.786,315119,32370,5,25,-0.01000038,3.27126,-0.0327138,0.1756833,0.08990677,0.5951962,0.2961439,,,,0,
11881,	09/26/2022 07:08:12.786,315719,32970,5,25,-0.01000035,3.27069,-0.032708,0.1756833,0.09157326,0.5951962,0.3015949,,-1.57658e-05,,0,
11941,	09/26/2022 07:18:12.787,316319.013,33570,5,25,-0.01000047,3.269985,-0.0327014,0.1756833,0.09323973,0.5951962,0.3070448,,1.91244e-05,,,
12001,	09/26/2022 07:28:12.786,316919,34170,5,25,-0.0100004,3.269045,-0.0326918,0.1756833,0.0949062,0.5951962,0.3124932,,1.51731e-05,,,
12061,	09/26/2022 07:38:12.788,317519,34770,5,25,-0.01000021,3.267971,-0.0326804,0.1756833,0.09657269,0.5951962,0.31794,,,,,
12121,	09/26/2022 07:48:12.786,318119,35370,5,25,-0.01000024,3.266596,-0.0326667,0.1756833,0.09823918,0.5951962,0.3233848,,1.5884e-05,,,
12181,	09/26/2022 07:58:12.786,318719,35970,5,25,-0.01000042,3.265155,-0.0326529,0.1756833,0.09990565,0.5951962,0.3288272,,1.03127e-05,,,
12241,	09/26/2022 08:08:12.786,319319,36570,5,25,-0.01000022,3.263516,-0.0326359,0.1756833,0.1015721,0.5951962,0.3342671,,-4.70172e-06,,,
12301,	09/26/2022 08:18:12.788,319919,37170,5,25,-0.01000043,3.261833,-0.0326197,0.1756833,0.1032386,0.5951962,0.3397044,,8.53456e-06,,,
12361,	09/26/2022 08:28:12.786,320519,37770,5,25,-0.01000033,3.260031,-0.0326014,0.1756833,0.1049051,0.5951962,0.3451388,,-7.46731e-06,,,
12421,	09/26/2022 08:38:12.787,321119,38370,5,25,-0.01000047,3.258094,-0.0325825,0.1756833,0.1065716,0.5951962,0.3505701,,-9.68129e-06,,,
12481,	09/26/2022 08:48:12.787,321719,38970,5,25,-0.01000047,3.256,-0.0325615,0.1756833,0.108238,0.5951962,0.3559981,,,,,
12541,	09/26/2022 08:58:12.787,322319,39570,5,25,-0.01000038,3.253797,-0.0325392,0.1756833,0.1099045,0.5951962,0.3614225,,-1.48951e-05,,,
12601,	09/26/2022 09:08:12.787,322919,40170.001,5,25,-0.01000039,3.251606,-0.0325173,0.1756833,0.111571,0.5951962,0.3668431,,-3.1217e-06,,,
12661,	09/26/2022 09:18:12.786,323519,40770,5,25,-0.01000047,3.249098,-0.0324925,0.1756833,0.1132375,0.5951962,0.3722596,,-1.73053e-05,,,0
12721,	09/26/2022 09:28:12.787,324119,41370.001,5,25,-0.01000038,3.246538,-0.0324666,0.1756833,0.114904,0.5951962,0.3776719,,9.56195e-06,,,0
12781,	09/26/2022 09:38:12.786,324719,41970,5,25,-0.01000043,3.24399,-0.0324413,0.1756833,0.1165705,0.5951962,0.3830799,,5.84785e-06,,,
12841,	09/26/2022 09:48:12.787,325319,42570,5,25,-0.01000054,3.241555,-0.0324173,0.1756833,0.118237,0.5951962,0.3884839,,-5.41322e-06,,,
12901,	09/26/2022 09:58:12.786,325919,43170,5,25,-0.01000049,3.239223,-0.0323938,0.1756833,0.1199035,0.5951962,0.3938839,,,,,
12961,	09/26/2022 10:08:12.787,326519,43770,5,25,-0.01000044,3.237133,-0.0323728,0.1756833,0.12157,0.5951962,0.3992804,,-5.92653e-06,,,
13021,	09/26/2022 10:18:12.786,327119,44370,5,25,-0.0100004,3.235163,-0.0323529,0.1756833,0.1232365,0.5951962,0.4046736,,-8.88973e-06,,,
13081,	09/26/2022 10:28:12.786,327719,44970,5,25,-0.01000061,3.233159,-0.0323336,0.1756833,0.124903,0.5951962,0.4100633,,6.59865e-06,,0,
13141,	09/26/2022 10:38:12.787,328319.013,45570,5,25,-0.01000047,3.23075,-0.032309,0.1756833,0.1265695,0.5951962,0.4154493,,-1.703e-05,,,
13201,	09/26/2022 10:48:12.786,328919,46170,5,25,-0.01000047,3.227987,-0.0322814,0.1756833,0.128236,0.5951962,0.4208309,,1.35133e-05,,,
13261,	09/26/2022 10:58:12.787,329519,46770,5,25,-0.01000053,3.22479,-0.0322496,0.1756833,0.1299025,0.5951962,0.4262076,,4.74119e-07,,,
13321,	09/26/2022 11:08:12.787,330119,47370,5,25,-0.01000046,3.221191,-0.0322134,0.1756833,0.131569,0.5951962,0.4315785,,,,,0
13381,	09/26/2022 11:18:12.786,330719,47970,5,25,-0.01000054,3.217346,-0.0321752,0.1756833,0.1332354,0.5951962,0.4369433,,5.53175e-06,,,0
13441,	09/26/2022 11:28:12.787,331319.013,48570,5,25,-0.01000059,3.213596,-0.0321379,0.1756833,0.1349019,0.5951962,0.4423017,,9.08781e-06,,,
13501,	09/26/2022 11:38:12.787,331919.013,49170,5,25,-0.01000044,3.210167,-0.0321031,0.1756833,0.1365684,0.5951962,0.4476542,,-2.13775e-05,,0,
13561,	09/26/2022 11:48:12.786,332519,49770,5,25,-0.0100005,3.206738,-0.032069,0.1756833,0.1382349,0.5951962,0.4530012,,1.11029e-05,,,
13621,	09/26/2022 11:58:12.787,333119.013,50370,5,25,-0.01000061,3.203109,-0.032033,0.1756833,0.1399014,0.5951962,0.4583424,,-3.00673e-05,,0,
13681,	09/26/2022 12:08:12.786,333719,50970,5,25,-0.01000063,3.198701,-0.031989,0.1756833,0.1415679,0.5951962,0.4636769,,3.75344e-06,,,
13741,	09/26/2022 12:18:12.787,334319,51570,5,25,-0.01000061,3.193367,-0.0319356,0.1756833,0.1432344,0.5951962,0.4690033,,,,,
13801,	09/26/2022 12:28:12.786,334919,52170,5,25,-0.01000053,3.188337,-0.0318851,0.1756833,0.1449009,0.5951962,0.4743206,,-1.45811e-05,,,
13861,	09/26/2022 12:38:12.786,335519,52770,5,25,-0.01000064,3.185886,-0.0318609,0.1756833,0.1465674,0.5951962,0.4796315,,1.11813e-05,,,
13921,	09/26/2022 12:48:12.787,336119.013,53370,5,25,-0.01000053,3.184594,-0.0318476,0.1756833,0.1482339,0.5951962,0.4849395,,2.608e-06,,,
13981,	09/26/2022 12:58:12.787,336719.013,53970,5,25,-0.01000053,3.183549,-0.0318372,0.1756833,0.1499004,0.5951962,0.4902456,,,,0,
14041,	09/26/2022 13:08:12.787,337319.013,54570,5,25,-0.01000047,3.182412,-0.0318256,0.1756833,0.1515669,0.5951962,0.49555,,1.39479e-05,,,
14101,	09/26/2022 13:18:12.787,337919,55170,5,25,-0.01000053,3.181081,-0.0318125,0.1756833,0.1532334,0.5951962,0.5008522,,2.24429e-05,,,
14161,	09/26/2022 13:28:12.786,338519,55770,5,25,-0.01000043,3.179374,-0.0317951,0.1756833,0.1548999,0.5951962,0.506152,,,,,
14221,	09/26/2022 13:38:12.787,339119,56370,5,25,-0.0100004,3.176958,-0.0317709,0.1756833,0.1565664,0.5951962,0.5114484,,-1.02725e-06,,,
14281,	09/26/2022 13:48:12.787,339719,56970.001,5,25,-0.01000043,3.173359,-0.031735,0.1756833,0.1582329,0.5951962,0.5167398,,3.79298e-06,,,
14341,	09/26/2022 13:58:12.786,340319,57570,5,25,-0.01000055,3.166793,-0.0316697,0.1756833,0.1598993,0.5951962,0.5220232,,-2.65147e-05,,,
14401,	09/26/2022 14:08:12.788,340919,58170,5,25,-0.01000059,3.153205,-0.0315339,0.1756833,0.1615658,0.5951962,0.5272906,,,,,
14461,	09/26/2022 14:18:12.787,341519.013,58770,5,25,-0.01000063,3.133633,-0.0313383,0.1756833,0.1632323,0.5951962,0.5325296,,-4.50473e-05,,,
14521,	09/26/2022 14:28:12.787,342119,59370,5,25,-0.01000059,3.111032,-0.0311122,0.1756833,0.1648988,0.5951962,0.5377335,,-2.93183e-05,,,0
14581,	09/26/2022 14:38:12.786,342719,59970,5,25,-0.0100005,3.085562,-0.0308572,0.1756833,0.1665653,0.5951962,0.5428972,,-5.07702e-05,,0.0621901,
14641,	09/26/2022 14:48:12.786,343319,60570,5,25,-0.01000054,3.056624,-0.0305679,0.1756833,0.1682318,0.5951962,0.5480155,,-5.3464e-05,,,
14701,	09/26/2022 14:58:12.786,343919,61170,5,25,-0.01000055,3.023715,-0.0302388,0.1756833,0.1698983,0.5951962,0.5530824,,-5.21574e-05,,,
14761,	09/26/2022 15:08:12.786,344519,61770,5,25,-0.01000054,2.985644,-0.0298581,0.1756833,0.1715648,0.5951962,0.5580904,,-5.98615e-05,,,24.0604
14821,	09/26/2022 15:18:12.786,345119,62370,5,25,-0.0100005,2.941061,-0.0294121,0.1756833,0.1732313,0.5951962,0.5630299,,-6.87524e-05,,,
14881,	09/26/2022 15:28:12.787,345719.013,62970,5,25,-0.01000064,2.887177,-0.0288736,0.1756833,0.1748977,0.5951962,0.5678878,,-9.02917e-05,,,
14941,	09/26/2022 15:38:12.787,346319,63570,5,25,-0.01000056,2.819014,-0.0281917,0.1756833,0.1765642,0.5951962,0.5726449,,-0.000113963,,0.0220023,
15001,	09/26/2022 15:48:12.787,346919,64170,5,25,-0.01000058,2.727266,-0.0272742,0.1756833,0.1782307,0.5951962,0.5772706,,-0.000168659,,,
15061,	09/26/2022 15:58:12.786,347519,64770,5,25,-0.01000057,2.576311,-0.0257646,0.1756833,0.1798972,0.5951962,0.5817025,,-0.000357166,,,
15121,	09/26/2022 16:14:40.734,348507,180.0009,5,27,0.01000057,2.735899,0.0273605,0.1761832,0.1804746,0.5965437,0.5831687,,0.000399538,,0.00738187,138.407
15181,	09/26/2022 16:24:40.733,349107,780.0002,5,27,0.01000051,2.879764,0.0287991,0.1778497,0.1804746,0.6012373,0.5831687,,0.000196812,,0.0158783,
15241,	09/26/2022 16:34:40.734,349707,1380.001,5,27,0.01000056,2.965006,0.0296517,0.1795162,0.1804746,0.6061121,0.5831687,,0.000102125,,0.0233213,43.7015
15301,	09/26/2022 16:44:40.733,350307,1980,5,27,0.01000048,3.02642,0.0302657,0.1811827,0.1804746,0.6111066,0.5831687,,9.52171e-05,,,
15361,	09/26/2022 16:54:40.733,350907,2580,5,27,0.0100005,3.074602,0.0307476,0.1828492,0.1804746,0.6161915,0.5831687,,6.93009e-05,,0.037863,26.6775
15421,	09/26/2022 17:04:40.734,351507,3180,5,27,0.01000035,3.114099,0.0311421,0.1845156,0.1804746,0.621349,0.5831687,,4.64241e-05,,,22.1202
15481,	09/26/2022 17:14:40.733,352107,3780,5,27,0.01000051,3.147445,0.0314761,0.1861821,0.1804746,0.6265669,0.5831687,,,,,
15541,	09/26/2022 17:24:40.734,352707,4380,5,27,0.01000035,3.176068,0.0317618,0.1878486,0.1804746,0.6318365,0.5831687,,3.3663e-05,,,
15601,	09/26/2022 17:34:40.733,353307,4980,5,27,0.01000046,3.200543,0.0320069,0.1895151,0.1804746,0.6371502,0.5831687,,4.80081e-05,,,
15661,	09/26/2022 17:44:40.734,353907,5580,5,27,0.0100005,3.221169,0.0322133,0.1911816,0.1804746,0.6425018,0.5831687,,,,,
15721,	09/26/2022 17:54:40.733,354507,6180,5,27,0.01000041,3.233043,0.0323318,0.1928481,0.1804746,0.6478816,0.5831687,,1.628e-05,,,
15781,	09/26/2022 18:04:40.734,355107,6780.001,5,27,0.01000049,3.235994,0.0323615,0.1945146,0.1804746,0.6532724,0.5831687,,1.30794e-05,,,
15841,	09/26/2022 18:14:40.733,355707,7380,5,27,0.01000041,3.237675,0.0323781,0.196181,0.1804746,0.6586667,0.5831687,,-2.9241e-06,,,
15901,	09/26/2022 18:24:40.733,356307,7980,5,27,0.0100005,3.239154,0.0323932,0.1978475,0.1804746,0.6640636,0.5831687,,,,0,
15961,	09/26/2022 18:34:40.734,356907,8580,5,27,0.01000037,3.240892,0.0324101,0.199514,0.1804746,0.6694631,0.5831687,,-4.74154e-07,,,
16021,	09/26/2022 18:44:40.733,357507,9180,5,27,0.01000048,3.242818,0.0324297,0.2011805,0.1804746,0.6748655,0.5831687,,-1.14981e-05,,0,
16081,	09/26/2022 18:54:40.734,358107,9780.001,5,27,0.01000041,3.245033,0.0324517,0.202847,0.1804746,0.6802712,0.5831687,,1.5805e-05,,,
16141,	09/26/2022 19:04:40.734,358707,10380.001,5,27,0.01000049,3.247709,0.0324787,0.2045135,0.1804746,0.685681,0.5831687,,-5.25547e-06,,,
16201,	09/26/2022 19:14:40.733,359307,10980,5,27,0.01000045,3.250971,0.0325112,0.20618,0.1804746,0.6910958,0.5831687,,1.46196e-06,,,
16261,	09/26/2022 19:24:40.733,359907,11580,5,27,0.01000034,3.254803,0.0325491,0.2078464,0.1804746,0.6965165,0.5831687,,1.73448e-05,,,
16321,	09/26/2022 19:34:40.734,360507,12180,5,27,0.0100005,3.259066,0.0325923,0.2095129,0.1804746,0.7019439,0.5831687,,,,,
16381,	09/26/2022 19:44:40.733,361107,12780,5,27,0.01000045,3.263396,0.0326354,0.2111794,0.1804746,0.7073787,0.5831687,,1.92426e-05,,,
16441,	09/26/2022 19:54:40.734,361707,13380,5,27,0.01000044,3.267901,0.0326804,0.2128459,0.1804746,0.7128209,0.5831687,,2.55251e-05,,,
16501,	09/26/2022 20:04:40.734,362307,13980.001,5,27,0.01000048,3.27233,0.0327249,0.2145124,0.1804746,0.7182707,0.5831687,,8.02151e-06,,,
16561,	09/26/2022 20:14:40.733,362907,14580,5,27,0.01000059,3.276743,0.0327694,0.2161789,0.1804746,0.7237278,0.5831687,,2.84097e-05,,0,
16621,	09/26/2022 20:24:40.734,363507,15180.001,5,27,0.01000054,3.280983,0.0328116,0.2178454,0.1804746,0.7291922,0.5831687,,2.11789e-05,,,
16681,	09/26/2022 20:34:40.733,364107,15780,5,27,0.01000042,3.284942,0.0328508,0.2195119,0.1804746,0.7346634,0.5831687,,-4.14885e-06,,,
16741,	09/26/2022 20:44:40.734,364707,16380,5,27,0.01000055,3.288458,0.0328864,0.2211784,0.1804746,0.7401409,0.5831687,,,,0,
16801,	09/26/2022 20:54:40.733,365307,16980,5,27,0.0100005,3.291675,0.0329184,0.2228448,0.1804746,0.7456238,0.5831687,,-1.31981e-05,,,
16861,	09/26/2022 21:04:40.734,365907,17580,5,27,0.01000032,3.29445,0.0329456,0.2245113,0.1804746,0.7511114,0.5831687,,-4.10954e-06,,,
16921,	09/26/2022 21:14:40.734,366507,18180.001,5,27,0.01000035,3.29738,0.032975,0.2261778,0.1804746,0.7566038,0.5831687,,2.61573e-05,,,
16981,	09/26/2022 21:24:40.733,367107,18780,5,27,0.0100004,3.300391,0.0330052,0.2278442,0.1804746,0.7621011,0.5831687,,-1.01541e-05,,,
17041,	09/26/2022 21:34:40.734,367707,19380,5,27,0.01000035,3.303562,0.0330368,0.2295107,0.1804746,0.7676038,0.5831687,,2.69083e-05,,,
17101,	09/26/2022 21:44:40.733,368307,19980,5,27,0.01000034,3.306739,0.0330685,0.2311772,0.1804746,0.7731119,0.5831687,,-1.70289e-05,,0,
17161,	09/26/2022 21:54:40.734,368907,20580,5,27,0.01000057,3.309779,0.0330997,0.2328436,0.1804746,0.7786251,0.5831687,,,,,
17221,	09/26/2022 22:04:40.733,369507,21180,5,27,0.01000036,3.312104,0.0331222,0.2345101,0.1804746,0.7841427,0.5831687,,-1.01154e-05,,,
17281,	09/26/2022 22:14:40.734,370107,21780,5,27,0.01000035,3.31377,0.0331389,0.2361766,0.1804746,0.7896636,0.5831687,,3.31886e-06,,,
17341,	09/26/2022 22:24:40.734,370707,22380.001,5,27,0.01000042,3.315275,0.0331541,0.237843,0.1804746,0.795187,0.5831687,,1.40666e-05,,,
17401,	09/26/2022 22:34:40.733,371307,22980,5,27,0.01000043,3.316773,0.0331692,0.2395095,0.1804746,0.8007128,0.5831687,,-1.31973e-05,,0,
17461,	09/26/2022 22:44:40.733,371907,23580,5,27,0.01000047,3.318181,0.0331834,0.2411759,0.1804746,0.8062413,0.5831687,,2.65509e-05,,,
17521,	09/26/2022 22:54:40.734,372507,24180.001,5,27,0.01000051,3.319557,0.0331973,0.2428424,0.1804746,0.8117722,0.5831687,,-1.24471e-05,,,
17581,	09/26/2022 23:04:40.733,373107,24780,5,27,0.01000044,3.320696,0.0332084,0.2445088,0.1804746,0.8173052,0.5831687,,,,,
17641,	09/26/2022 23:14:40.734,373707,25380.001,5,27,0.0100003,3.321581,0.0332168,0.2461753,0.1804746,0.8228399,0.5831687,,5.49224e-06,,,
17701,	09/26/2022 23:24:40.734,374307,25980,5,27,0.01000057,3.322214,0.033224,0.2478418,0.1804746,0.8283756,0.5831687,,1.77016e-05,,,
17761,	09/26/2022 23:34:40.734,374907,26580.001,5,27,0.01000044,3.32257,0.0332272,0.2495082,0.1804746,0.8339123,0.5831687,,2.42198e-05,,0,
17821,	09/26/2022 23:44:40.733,375507,27180,5,27,0.01000046,3.32293,0.0332308,0.2511747,0.1804746,0.8394495,0.5831687,,,,,
17881,	09/26/2022 23:54:40.734,376107,27780.001,5,27,0.01000042,3.323253,0.0332339,0.2528411,0.1804746,0.8449875,0.5831687,,-8.29811e-07,,,
17941,	09/27/2022 00:04:40.734,376707,28380,5,27,0.01000031,3.32355,0.0332365,0.2545077,0.1804746,0.8505262,0.5831687,,-3.20057e-06,,,
18001,	09/27/2022 00:14:40.733,377307,28980,5,27,0.01000039,3.324027,0.0332416,0.2561741,0.1804746,0.8560652,0.5831687,,1.54106e-05,,,
18061,	09/27/2022 00:24:40.734,377907,29580.001,5,27,0.01000043,3.324309,0.0332445,0.2578406,0.1804746,0.8616047,0.5831687,,-1.26044e-05,,,
18121,	09/27/2022 00:34:40.734,378507,30180,5,27,0.01000054,3.324685,0.0332486,0.2595071,0.1804746,0.8671448,0.5831687,,2.39055e-05,,,
18181,	09/27/2022 00:44:40.733,379107,30780,5,27,0.01000025,3.324926,0.0332501,0.2611735,0.1804746,0.8726854,0.5831687,,9.79927e-06,,,
18241,	09/27/2022 00:54:40.734,379707,31380,5,27,0.01000027,3.325281,0.0332537,0.26284,0.1804746,0.8782264,0.5831687,,,,0,
18301,	09/27/2022 01:04:40.733,380307,31980,5,27,0.01000055,3.325571,0.0332575,0.2645065,0.1804746,0.8837678,0.5831687,,1.85697e-06,,,
18361,	09/27/2022 01:14:40.733,380907,32580,5,27,0.01000059,3.325853,0.0332605,0.2661729,0.1804746,0.8893099,0.5831687,,-9.08781e-07,,,
18421,	09/27/2022 01:24:40.733,381507,33180,5,27,0.01000045,3.326211,0.0332636,0.2678394,0.1804746,0.8948525,0.5831687,,9.56203e-06,,,
18481,	09/27/2022 01:34:40.734,382107,33780,5,27,0.01000055,3.326438,0.0332662,0.2695059,0.1804746,0.9003957,0.5831687,,1.73056e-05,,,
18541,	09/27/2022 01:44:40.733,382707,34380,5,27,0.0100004,3.326733,0.0332687,0.2711723,0.1804746,0.9059395,0.5831687,,-2.03873e-05,,,
18601,	09/27/2022 01:54:40.733,383307,34980,5,27,0.0100004,3.327259,0.0332739,0.2728388,0.1804746,0.9114838,0.5831687,,5.25517e-06,,0,
18661,	09/27/2022 02:04:40.734,383907,35580,5,27,0.01000033,3.327567,0.0332768,0.2745053,0.1804746,0.9170287,0.5831687,,,,,
18721,	09/27/2022 02:14:40.733,384507,36180,5,27,0.01000044,3.327876,0.0332802,0.2761717,0.1804746,0.9225742,0.5831687,,8.89091e-06,,,
18781,	09/27/2022 02:24:40.733,385107,36780,5,27,0.01000043,3.3283,0.0332844,0.2778382,0.1804746,0.9281204,0.5831687,,-1.19725e-05,,,
18841,	09/27/2022 02:34:40.733,385707,37380,5,27,0.01000046,3.32872,0.0332887,0.2795047,0.1804746,0.9336672,0.5831687,,-2.23248e-05,,,0
18901,	09/27/2022 02:44:40.733,386307,37980,5,27,0.01000036,3.32916,0.0332928,0.2811711,0.1804746,0.9392149,0.5831687,,-2.48929e-06,,,0
18961,	09/27/2022 02:54:40.733,386907,38580,5,27,0.01000044,3.32977,0.0332992,0.2828376,0.1804746,0.9447632,0.5831687,,-1.80586e-05,,,
19021,	09/27/2022 03:04:40.733,387507,39180,5,27,0.0100004,3.330108,0.0333024,0.2845041,0.1804746,0.9503124,0.5831687,,3.16098e-07,,0,
19081,	09/27/2022 03:14:40.734,388107,39780,5,27,0.01000047,3.330646,0.033308,0.2861705,0.1804746,0.9558625,0.5831687,,,,,
19141,	09/27/2022 03:24:40.734,388707,40380.001,5,27,0.01000034,3.331239,0.0333135,0.287837,0.1804746,0.9614134,0.5831687,,1.49743e-05,,,
19201,	09/27/2022 03:34:40.733,389307,40980,5,27,0.01000054,3.331791,0.0333197,0.2895034,0.1804746,0.9669654,0.5831687,,2.42212e-05,,,
19261,	09/27/2022 03:44:40.733,389907,41580,5,27,0.01000053,3.332447,0.0333262,0.2911699,0.1804746,0.9725184,0.5831687,,-1.37108e-05,,,
19321,	09/27/2022 03:54:40.733,390507,42180,5,27,0.01000044,3.333172,0.0333332,0.2928364,0.1804746,0.9780726,0.5831687,,1.60825e-05,,,
19381,	09/27/2022 04:04:40.734,391107,42780,5,27,0.01000035,3.333965,0.0333408,0.2945029,0.1804746,0.983628,0.5831687,,9.20573e-06,,0,
19441,	09/27/2022 04:14:40.733,391707,43380,5,27,0.01000043,3.335004,0.0333515,0.2961693,0.1804746,0.9891848,0.5831687,,1.23279e-05,,,
19501,	09/27/2022 04:24:40.734,392307,43980.001,5,27,0.01000057,3.335957,0.0333615,0.2978358,0.1804746,0.994743,0.5831687,,,,,
19561,	09/27/2022 04:34:40.733,392907,44580,5,27,0.01000036,3.336895,0.0333702,0.2995022,0.1804746,1.000303,0.5831687,,2.09006e-05,,,
19621,	09/27/2022 04:44:40.734,393507,45180.001,5,27,0.01000043,3.338106,0.0333825,0.3011687,0.1804746,1.005865,0.5831687,,1.23286e-05,,,
19681,	09/27/2022 04:54:40.734,394107,45780.001,5,27,0.01000042,3.339488,0.0333963,0.3028351,0.1804746,1.011429,0.5831687,,-1.58456e-05,,0,
19741,	09/27/2022 05:04:40.733,394707,46380,5,27,0.01000038,3.341096,0.0334122,0.3045016,0.1804746,1.016995,0.5831687,,,,,
19801,	09/27/2022 05:14:40.734,395307,46980.001,5,27,0.01000037,3.342933,0.0334306,0.3061681,0.1804746,1.022565,0.5831687,,-4.10903e-06,,,
19861,	09/27/2022 05:24:40.734,395907,47580,5,27,0.01000042,3.345247,0.0334539,0.3078346,0.1804746,1.028138,0.5831687,,-3.08218e-06,,,
19921,	09/27/2022 05:34:40.733,396507,48180,5,27,0.01000053,3.347983,0.0334816,0.309501,0.1804746,1.033715,0.5831687,,,,,
19981,	09/27/2022 05:44:40.733,397107,48780,5,27,0.01000049,3.351026,0.0335119,0.3111675,0.1804746,1.039296,0.5831687,,-1.02739e-05,,,
20041,	09/27/2022 05:54:40.733,397707,49380,5,27,0.01000037,3.354291,0.0335442,0.3128339,0.1804746,1.044883,0.5831687,,1.41455e-05,,0,
20101,	09/27/2022 06:04:40.733,398307,49980,5,27,0.01000047,3.357544,0.033577,0.3145004,0.1804746,1.050476,0.5831687,,1.10635e-06,,,
20161,	09/27/2022 06:14:40.734,398907,50580.001,5,27,0.01000046,3.360228,0.0336038,0.3161669,0.1804746,1.056073,0.5831687,,,,,
20221,	09/27/2022 06:24:40.733,399507,51180,5,27,0.01000027,3.362342,0.0336243,0.3178333,0.1804746,1.061675,0.5831687,,1.05894e-05,,,
20281,	09/27/2022 06:34:40.734,400107,51780,5,27,0.01000046,3.363414,0.0336357,0.3194998,0.1804746,1.067279,0.5831687,,-1.06677e-06,,,0
20341,	09/27/2022 06:44:40.734,400707,52380,5,27,0.01000036,3.363833,0.0336395,0.3211663,0.1804746,1.072885,0.5831687,,-2.43004e-05,,,0
20401,	09/27/2022 06:54:40.734,401307,52980.001,5,27,0.01000034,3.364014,0.0336413,0.3228327,0.1804746,1.07849,0.5831687,,2.01129e-05,,0,
20461,	09/27/2022 07:04:40.734,401907,53580.001,5,27,0.01000042,3.364172,0.0336431,0.3244992,0.1804746,1.084097,0.5831687,,-4.10927e-06,,,
20521,	09/27/2022 07:14:40.733,402507,54180,5,27,0.01000036,3.364502,0.0336462,0.3261656,0.1804746,1.089704,0.5831687,,-1.43035e-05,,,
20581,	09/27/2022 07:24:40.733,403107,54780,5,27,0.01000034,3.364766,0.0336488,0.3278321,0.1804746,1.095311,0.5831687,,,,,
20641,	09/27/2022 07:34:40.733,403707,55380,5,27,0.01000033,3.365155,0.0336527,0.3294986,0.1804746,1.100918,0.5831687,,-1.24078e-05,,,
20701,	09/27/2022 07:44:40.734,404307,55980.001,5,27,0.01000029,3.36554,0.0336564,0.331165,0.1804746,1.106527,0.5831687,,-4.97821e-06,,,
20761,	09/27/2022 07:54:40.733,404907,56580,5,27,0.01000042,3.36598,0.0336612,0.3328315,0.1804746,1.112136,0.5831687,,1.63988e-05,,0,
20821,	09/27/2022 08:04:40.734,405507,57180.001,5,27,0.01000035,3.366416,0.0336653,0.3344979,0.1804746,1.117745,0.5831687,,-1.68322e-05,,,
20881,	09/27/2022 08:14:40.733,406107,57780,5,27,0.0100005,3.36699,0.0336716,0.3361644,0.1804746,1.123356,0.5831687,,5.49188e-06,,,
20941,	09/27/2022 08:24:40.734,406707,58380.001,5,27,0.01000043,3.367479,0.0336762,0.3378309,0.1804746,1.128967,0.5831687,,1.22488e-05,,,
21001,	09/27/2022 08:34:40.733,407307,58980,5,27,0.01000038,3.367984,0.0336811,0.3394974,0.1804746,1.134579,0.5831687,,,,,
21061,	09/27/2022 08:44:40.734,407907,59580,5,27,0.01000051,3.368429,0.033686,0.3411638,0.1804746,1.140192,0.5831687,,2.09416e-05,,,
21121,	09/27/2022 08:54:40.734,408507,60180,5,27,0.01000036,3.369048,0.0336917,0.3428303,0.1804746,1.145806,0.5831687,,-1.29611e-05,,0,
21181,	09/27/2022 09:04:40.733,409107,60780,5,27,0.0100004,3.369839,0.0336997,0.3444967,0.1804746,1.151421,0.5831687,,1.2565e-05,,,
21241,	09/27/2022 09:14:40.733,409707,61380,5,27,0.01000022,3.370797,0.0337087,0.3461632,0.1804746,1.157038,0.5831687,,-1.32359e-05,,0,0
21301,	09/27/2022 09:24:40.733,410307,61980,5,27,0.01000059,3.371949,0.0337215,0.3478296,0.1804746,1.162656,0.5831687,,-8.9299e-06,,,0
21361,	09/27/2022 09:34:40.734,410907,62580.001,5,27,0.0100003,3.373586,0.0337369,0.3494961,0.1804746,1.168277,0.5831687,,-4.50439e-06,,,
21421,	09/27/2022 09:44:40.733,411507,63180,5,27,0.01000038,3.376192,0.0337632,0.3511625,0.1804746,1.173901,0.5831687,,,,,0
21481,	09/27/2022 09:54:40.734,412107,63780,5,27,0.0100004,3.380259,0.0338039,0.352829,0.1804746,1.17953,0.5831687,,2.0428e-05,,0,
21541,	09/27/2022 10:04:40.733,412707,64380,5,27,0.01000045,3.388344,0.033885,0.3544955,0.1804746,1.185169,0.5831687,,4.19228e-05,,,0
21601,	09/27/2022 10:14:40.733,413307,64980,5,27,0.01000052,3.410174,0.0341035,0.356162,0.1804746,1.19083,0.5831687,,4.59531e-05,,0.0488654,
21661,	09/27/2022 10:24:40.733,413907,65580,5,27,0.01000044,3.512475,0.0351263,0.3578285,0.1804746,1.196573,0.5831687,,0.000331591,,0.00767398,
21721,	09/27/2022 10:45:15.612,415142,390.0001,6,30,-0.2000253,3.17644,-0.635368,0,0.02166633,0,0.06922974,,-6.56303e-05,,,0.967084
21781,	09/27/2022 11:15:15.612,416942,2190,6,30,-0.2000319,3.061219,-0.612341,0,0.1216629,0,0.3821032,,-0.000143379,,,
21841,	09/27/2022 11:44:50.572,418717,990.0009,6,31,0,3.073407,0,0,0.1652677,0,0.5092722,,7.26629e-05,,0,
21901,	09/27/2022 12:14:50.571,420517,2790,6,31,0,3.126391,0,0,0.1652677,0,0.5092722,,2.49717e-05,,,
21928,	09/27/2022 12:28:20.571,421327,3600,6,31,0,3.136792,0,0,0.1652677,0,0.5092722,,3.44157e-05,0.399046,0,0