File: Cell 3.CSV
Data Point,Date Time,Test Time (s),Step Time (s),Cycle Index,Step Index,Current (A),Voltage (V),Power (W),Charge Capacity (Ah),Discharge Capacity (Ah),Charge Energy (Wh),Discharge Energy (Wh),ACR (Ohm),dV/dt (V/s),Internal Resistance (Ohm),dQ/dV (Ah/V),dV/dQ (V/Ah)
1,	09/22/2022 15:27:13.789,60.0009,60.0009,1,1,0,0.07473326,0,0,0,0,0,,4.54884e-06,,,
67,	09/22/2022 16:29:13.829,3780.04,180.001,1,2,0.0004385755,1.499915,0.000657826,0.0001046551,0,0.0001408422,0,,-5.61087e-06,,,
133,	09/22/2022 17:02:13.830,5760.04,2160,1,2,0.00007331945,1.499906,0.000109972,0.0001807164,0,0.0002549342,0,,-2.43004e-06,,0,
199,	09/22/2022 17:43:13.872,8220.084,1020,1,3,0,1.373177,0,0.0002055597,0,0.0002921992,0,,-6.55661e-05,,0,
265,	09/22/2022 18:49:13.873,12180.1,4980.001,1,3,0,1.206426,0,0.0002055597,0,0.0002921992,0,,-2.75972e-05,,0,
331,	09/22/2022 19:55:13.872,16140.1,8940,1,3,0,1.110903,0,0.0002055597,0,0.0002921992,0,,-2.9121e-05,,0,
397,	09/22/2022 21:01:13.872,20100.1,12900,1,3,0,1.036508,0,0.0002055597,0,0.0002921992,0,,-1.80363e-05,,0,
463,	09/22/2022 22:07:13.873,24060.1,16860,1,3,0,0.9756274,0,0.0002055597,0,0.0002921992,0,,-1.43728e-05,,0,
529,	09/22/2022 23:13:13.873,28020.1,20820.001,1,3,0,0.9240794,0,0.0002055597,0,0.0002921992,0,,-1.10331e-05,,0,
595,	09/23/2022 00:19:13.873,31980.1,24780.001,1,3,0,0.8794837,0,0.0002055597,0,0.0002921992,0,,-1.76031e-05,,0,
661,	09/23/2022 01:25:13.872,35940.084,28740,1,3,0,0.8404756,0,0.0002055597,0,0.0002921992,0,,-1.3128e-05,,0,
727,	09/23/2022 02:31:13.872,39900.1,32700,1,3,0,0.8060441,0,0.0002055597,0,0.0002921992,0,,-4.1093e-06,,0,
793,	09/23/2022 03:37:13.873,43860.1,36660.001,1,3,0,0.7757926,0,0.0002055597,0,0.0002921992,0,,-1.28118e-05,,,
859,	09/23/2022 04:43:13.873,47820.1,40620,1,3,0,0.74898,0,0.0002055597,0,0.0002921992,0,,-9.54227e-06,,0,
925,	09/23/2022 05:37:15.198,51061.4,660.0008,1,5,0.04001766,3.148031,0.125977,0.007540887,0,0.02206019,0,,0.000470635,,0.0276894,36.8411
991,	09/23/2022 06:10:15.197,53041.4,2640,1,5,0.04001796,3.499589,0.140046,0.02954737,0,0.09615669,0,,6.25868e-05,,,
1057,	09/23/2022 06:43:15.197,55021.4,4620,1,5,0.04002011,3.55998,0.142471,0.05155431,0,0.1738431,0,,3.75761e-05,,0,
1123,	09/23/2022 07:16:13.174,56999.4,750.001,1,7,0,3.565932,0,0.06520239,0,0.222712,0,,-3.49686e-05,,0,
1189,	09/23/2022 07:48:43.215,58949.4,900.0009,1,8,0.0399853,3.619783,0.144738,0.07519655,0,0.2587138,0,,1.2724e-05,,,
1255,	09/23/2022 08:21:43.214,60929.4,2880,1,8,0.03998393,3.657976,0.14626,0.09718335,0,0.3387745,0,,2.0586e-05,,,0
1321,	09/23/2022 08:54:43.215,62909.4,4860,1,8,0.03998369,3.68873,0.147489,0.11917,0,0.4195279,0,,2.61959e-05,,0.645838,1.50926
1387,	09/23/2022 09:27:43.215,64889.4,6840.001,1,8,0.03998554,3.732178,0.149233,0.1411563,0,0.5010685,0,,1.74265e-05,,0,0
1453,	09/23/2022 10:00:43.214,66869.4,8820,1,8,0.03998148,3.794525,0.151711,0.1631431,0,0.5837951,0,,3.62324e-05,,0.342424,
1519,	09/23/2022 10:33:43.215,68849.4,10800,1,8,0.03998536,3.86629,0.154595,0.1851302,0,0.6679849,0,,4.89556e-05,,0,
1585,	09/23/2022 11:06:43.215,70829.4,12780.001,1,8,0.03998315,3.952146,0.158019,0.2071169,0,0.753913,0,,3.41764e-05,,0,
1651,	09/23/2022 11:39:43.215,72809.4,14760,1,8,0.03998077,4.048378,0.161857,0.2291033,0,0.8418502,0,,4.00627e-05,,0,
1717,	09/23/2022 12:12:43.215,74789.4,16740.001,1,8,0.03998441,4.155159,0.166142,0.2510891,0,0.932007,0,,5.67409e-05,,0.193468,
1783,	09/23/2022 12:44:53.220,76719.4,1170,1,10,-0.03999627,4.060784,-0.162416,0.2595275,0.01299538,0.9672564,0.05337263,,-5.52385e-05,,0.160187,0
1849,	09/23/2022 13:17:53.219,78699.4,3150,1,10,-0.03999531,3.941301,-0.157634,0.2595275,0.03498777,0.9672564,0.1413194,,-3.99096e-05,,0,
1915,	09/23/2022 13:50:00.925,80627.1,1170,1,7,0,3.920972,0,0,0.00000002221945,0.9672564,0.1743134,,8.92983e-06,,0,
1981,	09/23/2022 14:22:30.968,82577.2,1320.001,1,8,0.0399847,4.012809,0.160451,0.01465753,0.00000002221945,1.02553,0.1743134,,7.15135e-05,,,5.01187
2047,	09/23/2022 14:55:30.967,84557.2,3300,1,8,0.03998584,4.12866,0.165088,0.03664435,0.00000002221945,1.115006,0.1743134,,3.98293e-05,,,
2113,	09/23/2022 15:27:48.597,86494.8,870.001,1,10,-0.04001212,4.094835,-0.163843,0.04849956,0.009667861,1.164365,0.2142314,,-7.34149e-05,,0.158081,
2179,	09/23/2022 16:00:48.596,88474.8,2850,1,10,-0.04001474,3.974164,-0.159025,0.04849956,0.03167019,1.164365,0.3029598,,-3.62722e-05,,,
2245,	09/23/2022 16:32:57.336,90403.5,570.0008,1,7,0,3.919869,0,0,0.00000002222835,1.164365,0.3623974,,1.84142e-05,,0,
2311,	09/23/2022 17:05:27.376,92353.6,720.0007,1,8,0.03999978,3.979366,0.159174,0.007998426,0.00000002222835,1.196027,0.3623974,,7.40416e-05,,0,0
2377,	09/23/2022 17:38:27.377,94333.6,2700,1,8,0.04000014,4.092261,0.163691,0.02999447,0.00000002222835,1.284782,0.3623974,,8.04482e-05,,0.187836,5.34876
2443,	09/23/2022 18:10:46.070,96272.3,270.0011,1,10,-0.04001427,4.144106,-0.165823,0.04853159,0.003000359,1.361607,0.3748723,,-7.26246e-05,,,
2509,	09/23/2022 18:43:46.069,98252.3,2250,1,10,-0.04001212,4.014162,-0.160615,0.04853159,0.02500231,1.361607,0.4645428,,-7.03335e-05,,,0
2575,	09/23/2022 19:16:46.070,100232,4230,1,10,-0.04001313,3.90388,-0.156206,0.04853159,0.0470041,1.361607,0.5516291,,-6.64963e-05,,,0
2641,	09/23/2022 19:48:25.897,102132,30.001,1,8,0.04000014,3.936373,0.157455,0.0003332412,0.00000002111681,1.362918,0.5546534,,0.000169956,,0.042571,316.123
2707,	09/23/2022 20:21:25.897,104112,2010.001,1,8,0.0400033,4.050889,0.162049,0.02232884,0.00000002111681,1.450793,0.5546534,,0.00014708,,0.193496,
2773,	09/23/2022 20:54:25.896,106092.108,3990,1,8,0.04000092,4.172035,0.166885,0.04432443,0.00000002111681,1.541196,0.5546534,,8.31306e-05,,0.167319,5.97873
2839,	09/23/2022 21:26:38.477,108024.689,1530,1,10,-0.04001486,4.059822,-0.162453,0.04879568,0.01700183,1.559913,0.6245477,,-3.79289e-05,,,
2905,	09/23/2022 21:59:38.476,110004.688,3510,1,10,-0.04001147,3.945096,-0.157849,0.04879568,0.03900471,1.559913,0.7125912,,-4.39771e-05,,,
2971,	09/23/2022 22:31:57.681,111944,1110,1,7,0,3.920165,0,0,0.0000000589116,1.559913,0.7487339,,2.12595e-05,,0,
3037,	09/23/2022 23:04:27.723,113894,1260,1,8,0.04000193,4.008059,0.16033,0.01399751,0.0000000589116,1.615518,0.7487339,,7.34945e-05,,0,0
3103,	09/23/2022 23:37:27.724,115873.936,3240,1,8,0.04000086,4.123692,0.164951,0.03599354,0.0000000589116,1.704929,0.7487339,,4.46458e-05,,0,
3169,	09/24/2022 00:09:52.100,117818.312,780.0001,1,10,-0.04001129,4.109247,-0.164416,0.04892834,0.008667975,1.758749,0.7846052,,-8.71982e-05,,,
3235,	09/24/2022 00:42:52.100,119798.312,2760,1,10,-0.04001409,3.988554,-0.159598,0.04892834,0.03067027,1.758749,0.8736527,,-5.01418e-05,,0,
3301,	09/24/2022 01:15:00.413,121727,330.0009,1,7,0,3.918206,0,0,0.00000005890608,1.758749,0.9436964,,6.24298e-06,,0,
3367,	09/24/2022 01:47:30.454,123677,480,1,8,0.04000103,3.964137,0.15857,0.005332395,0.00000005890608,1.779811,0.9436964,,6.35804e-05,,0,
3433,	09/24/2022 02:20:30.454,125657,2460,1,8,0.04000521,4.076591,0.163085,0.02732967,0.00000005890608,1.868236,0.9436964,,4.66275e-05,,,
3499,	09/24/2022 02:53:00.451,127606.663,0.0047,1,9,0,4.191528,0,0.04899294,0.00000005890608,1.957844,0.9436964,,9.5076e-05,0.756303,0,0
3565,	09/24/2022 03:26:00.479,129587,1980,1,11,0,4.175568,0,0.04899294,0.00000005890608,1.957844,0.9436964,,2.21256e-05,,0,
3631,	09/24/2022 03:59:00.479,131567,3960,1,11,0,4.173007,0,0.04899294,0.00000005890608,1.957844,0.9436964,,-2.73406e-05,,,
3697,	09/24/2022 04:32:00.480,133546.692,5940,1,11,0,4.171237,0,0.04899294,0.00000005890608,1.957844,0.9436964,,-5.8478e-06,,0,
3763,	09/24/2022 05:05:00.479,135527,7920,1,11,0,4.169622,0,0.04899294,0.00000005890608,1.957844,0.9436964,,-1.65953e-05,,,
3829,	09/24/2022 05:38:00.479,137507,9900,1,11,0,4.168643,0,0.04899294,0.00000005890608,1.957844,0.9436964,,9.24647e-06,,0,
3895,	09/24/2022 06:10:30.519,139457,1050,1,12,-0.04001421,4.083225,-0.163387,0.04899294,0.01166819,1.957844,0.9917403,,-4.56005e-05,,0.179063,
3961,	09/24/2022 06:43:30.520,141436.732,3030.001,1,12,-0.04001069,3.968454,-0.158781,0.04899294,0.03367088,1.957844,1.080299,,-4.22389e-05,,0.198793,
4027,	09/24/2022 07:16:30.519,143417,5010,1,12,-0.04001242,3.863477,-0.154587,0.04899294,0.05567341,1.957844,1.166441,,-4.22385e-05,,0.219121,
4093,	09/24/2022 07:49:30.519,145397,6990,1,12,-0.04001349,3.768653,-0.150797,0.04899294,0.07767551,1.957844,1.250381,,-6.08057e-05,,0.246012,
4159,	09/24/2022 08:22:30.520,147377,8970,1,12,-0.04001135,3.691875,-0.147717,0.04899294,0.09967767,1.957844,1.332402,,-2.81724e-05,,0,
4225,	09/24/2022 08:55:30.519,149357,10950,1,12,-0.04001319,3.641667,-0.145715,0.04899294,0.1216795,1.957844,1.413043,,1.5805e-07,,,
4291,	09/24/2022 09:28:30.519,151337,12930,1,12,-0.04001284,3.603248,-0.144176,0.04899294,0.1436814,1.957844,1.492739,,-4.34613e-07,,,
4357,	09/24/2022 10:01:30.520,153316.732,14910.001,1,12,-0.04001236,3.56145,-0.142502,0.04899294,0.1656839,1.957844,1.571576,,-3.83246e-05,,,0
4423,	09/24/2022 10:34:30.520,155297,16890,1,12,-0.04001409,3.504714,-0.140238,0.04899294,0.1876874,1.957844,1.649351,,-2.62348e-05,,0,
4489,	09/24/2022 11:07:30.519,157277,18870,1,12,-0.04001534,3.405856,-0.136286,0.04899294,0.2096915,1.957844,1.7255,,-8.68689e-05,,,5.95946
4555,	09/24/2022 12:33:49.766,162456,210.0007,1,17,0.09999502,3.472618,0.347245,0.005831761,0,1.977766,1.775425,,0.000478008,,0.0630847,16.7486
4621,	09/24/2022 13:06:49.766,164436,2190,1,17,0.09999114,3.654273,0.365395,0.06081935,0,2.174727,1.775425,,3.39413e-05,,0.586337,1.82607
4687,	09/24/2022 13:39:49.766,166416,4170,1,17,0.09999287,3.752313,0.375205,0.1158079,0,2.37809,1.775425,,5.76478e-05,,,0
4753,	09/24/2022 14:12:49.766,168396,6150,1,17,0.09999287,3.946928,0.394665,0.1707965,0,2.589322,1.775425,,0.000106642,,0.222125,4.4324
4819,	09/24/2022 14:45:49.766,170376,8130.001,1,17,0.04544926,4.199985,0.190886,0.2237509,0,2.805244,1.775425,,1.07474e-05,,,0
4885,	09/24/2022 15:18:18.421,172325,630.0002,1,19,-0.1000075,4.047937,-0.404824,0.228093,0.01749731,2.823481,1.847161,,-0.000192171,,,5.53727
4951,	09/24/2022 15:51:18.421,174305,2610,1,19,-0.1000064,3.777867,-0.377811,0.228093,0.07248873,2.823481,2.06205,,-0.000151479,,,4.35962
5017,	09/24/2022 16:24:18.421,176285,4590,1,19,-0.1000081,3.612555,-0.361285,0.228093,0.1274837,2.823481,2.26463,,-5.08169e-05,,0,
5083,	09/24/2022 16:57:18.422,178265,6570.001,1,19,-0.1000074,3.499068,-0.349933,0.228093,0.1824788,2.823481,2.460374,,-9.49333e-05,,,
5149,	09/24/2022 17:30:12.464,180239,540.0003,1,20,0,3.343104,0,0.228093,0.2223095,2.823481,2.595419,,7.57894e-05,,,
5215,	09/24/2022 18:01:43.807,182130,1830,2,17,0.09999394,3.641897,0.364168,0.05082193,0.00000000001218418,0.1810971,0.00000000004078117,,3.83667e-05,,0.454512,
5281,	09/24/2022 18:34:43.808,184110,3810,2,17,0.0999949,3.737083,0.373689,0.1058107,0.00000000001218418,0.3838464,0.00000000004078117,,7.57449e-05,,0.432953,2.24115
5347,	09/24/2022 19:07:43.809,186090.021,5790,2,17,0.09999162,3.924061,0.392373,0.1607989,0.00000000001218418,0.5940402,0.00000000004078117,,0.000107949,,0.232409,
5413,	09/24/2022 19:40:43.808,188070.02,7770,2,17,0.08472273,4.20008,0.355842,0.2157105,0.00000000001218418,0.8168411,0.00000000004078117,,7.66594e-06,,,
5479,	09/24/2022 20:13:12.663,190019,480.0002,2,19,-0.1000068,4.072977,-0.407325,0.22297,0.01333185,0.847331,0.05484355,,-0.000128806,,0.176679,
5545,	09/24/2022 20:46:12.664,191999,2460,2,19,-0.1000074,3.797278,-0.379756,0.22297,0.06832601,0.847331,0.2709646,,-0.00015476,,0.224281,4.45746
5611,	09/24/2022 21:19:12.663,193979,4440,2,19,-0.1000088,3.621341,-0.362166,0.22297,0.1233201,0.847331,0.474291,,-6.9309e-05,,,0
5677,	09/24/2022 21:52:12.663,195959,6420,2,19,-0.1000053,3.51108,-0.351127,0.22297,0.1783148,0.847331,0.6705344,,-7.45941e-05,,0.412884,
5743,	09/24/2022 22:25:04.321,197931,390.0001,2,20,0,3.325175,0,0.22297,0.2222439,0.847331,0.8199397,,0.000106352,,0,
5809,	09/24/2022 22:56:35.669,199822,1680,3,17,0.09999317,3.631369,0.363112,0.04665687,0.00000000002496772,0.1658759,0.00000000008346795,,7.67276e-05,,0.399016,2.59315
5875,	09/24/2022 23:29:35.670,201802,3660,3,17,0.09999329,3.726623,0.372637,0.1016456,0.00000000002496772,0.3681822,0.00000000008346795,,7.95782e-05,,0.473289,
5941,	09/25/2022 00:02:35.670,203782,5640,3,17,0.09999394,3.906116,0.390588,0.1566336,0.00000000002496772,0.5775781,0.00000000008346795,,0.000102992,,,
6007,	09/25/2022 00:35:35.670,205762,7620,3,17,0.09999442,4.179786,0.417955,0.2116214,0.00000000002496772,0.7995266,0.00000000008346795,,0.000142271,,0.172913,
6073,	09/25/2022 01:07:39.160,207685.372,330.0008,3,19,-0.1000068,4.098584,-0.409886,0.2228186,0.009165543,0.8465203,0.03783618,,-0.000201577,,0.16688,6.02124
6139,	09/25/2022 01:40:39.160,209665,2310.001,3,19,-0.1000102,3.817317,-0.381771,0.2228186,0.06415743,0.8465203,0.2551809,,-0.000115626,,0.208984,4.58939
6205,	09/25/2022 02:13:39.160,211645,4290.001,3,19,-0.1000092,3.630841,-0.363118,0.2228186,0.1191512,0.8465203,0.4593047,,-4.96273e-05,,,0
6271,	09/25/2022 02:46:39.160,213625,6270,3,19,-0.100007,3.521571,-0.352182,0.2228186,0.1741473,0.8465203,0.6560428,,-5.11683e-05,,,0
6337,	09/25/2022 03:19:30.738,215597,240.0002,3,20,0,3.294601,0,0.2228186,0.2222417,0.8465203,0.8201066,,0.000279752,,,
6403,	09/25/2022 03:51:02.084,217488,1530,4,17,0.0999921,3.618837,0.361855,0.04249018,0,0.150679,0,,9.9675e-05,,,
6469,	09/25/2022 04:24:02.085,219468,3510.001,4,17,0.09999299,3.716423,0.371616,0.09747776,0,0.3525026,0,,4.01072e-05,,0.523106,1.86133
6535,	09/25/2022 04:57:02.084,221448,5490,4,17,0.09999382,3.887421,0.388718,0.1524652,0,0.5610908,0,,0.00011499,,0.248412,3.99548
6601,	09/25/2022 05:30:02.084,223428,7470,4,17,0.0999921,4.154977,0.415465,0.2074529,0,0.7818524,0,,0.000178861,,0.177624,
6667,	09/25/2022 06:02:11.831,225358,210.001,4,19,-0.09999007,4.119914,-0.41195,0.2227512,0.005831743,0.8459288,0.02414577,,-0.000155774,,0.157626,6.37624
6733,	09/25/2022 06:35:11.831,227338,2190,4,19,-0.09998995,3.833699,-0.383331,0.2227512,0.06081932,0.8459288,0.2424885,,-0.000154188,,0.214725,
6799,	09/25/2022 07:08:11.831,229318,4170.001,4,19,-0.09998822,3.639111,-0.363868,0.2227512,0.1158065,0.8459288,0.4472777,,-7.05706e-05,,0.434674,2.34092
6865,	09/25/2022 07:41:11.830,231298,6150,4,19,-0.09998995,3.530091,-0.352974,0.2227512,0.1707917,0.8459288,0.6443959,,-5.00253e-05,,0,
6931,	09/25/2022 08:14:05.035,233271,120.0011,4,20,0,3.246537,0,0.2227512,0.222255,0.8459288,0.8203595,,0.000633279,,,
6997,	09/25/2022 08:45:36.511,235163,1410,5,23,0.09999239,3.606717,0.360644,0.03915789,0.00000000001151363,0.1385367,0.00000000003839208,,0.000103258,,0.328609,
7063,	09/25/2022 09:18:36.512,237143,3390,5,23,0.09999168,3.708299,0.370799,0.09414492,0.00000000001151363,0.3399238,0.00000000003839208,,6.04157e-05,,,
7129,	09/25/2022 09:51:36.512,239123,5370,5,23,0.09999168,3.872838,0.387252,0.1491323,0.00000000001151363,0.5478482,0.00000000003839208,,0.000115545,,0.25761,3.83676
7195,	09/25/2022 10:24:36.511,241103,7350,5,23,0.09999239,4.135091,0.413478,0.2041201,0.00000000001151363,0.7676494,0.00000000003839208,,0.000128028,,0.183807,
7261,	09/25/2022 10:55:32.948,242959.16,40.0001,5,25,-0.01000143,4.187335,-0.0418793,0.2227205,0.000111089,0.8453962,0.0004652539,,-1.45405e-05,,,
7327,	09/25/2022 11:06:32.949,243619,700.001,5,25,-0.01000131,4.172538,-0.0417308,0.2227205,0.001944246,0.8453962,0.008127037,,-3.91964e-05,,,
7393,	09/25/2022 11:17:32.949,244279,1360.001,5,25,-0.01000147,4.160114,-0.0416073,0.2227205,0.003777518,0.8453962,0.01576503,,-3.41368e-05,,,
7459,	09/25/2022 11:28:32.948,244939,2020,5,25,-0.01000139,4.148569,-0.0414915,0.2227205,0.00561082,0.8453962,0.02338126,,-3.79298e-05,,,
7525,	09/25/2022 11:39:32.948,245599,2680,5,25,-0.01000143,4.137441,-0.0413803,0.2227205,0.007444131,0.8453962,0.03097679,,-8.69276e-06,,,0
7591,	09/25/2022 11:50:32.949,246259,3340.001,5,25,-0.01000134,4.126726,-0.0412728,0.2227205,0.009277442,0.8453962,0.03855227,,1.3434e-06,,,
7657,	09/25/2022 12:01:32.948,246919,4000,5,25,-0.01000133,4.116271,-0.0411682,0.2227205,0.01111074,0.8453962,0.04610815,,-4.57517e-05,,,
7723,	09/25/2022 12:12:32.949,247579.161,4660,5,25,-0.01000155,4.105942,-0.0410658,0.2227205,0.01294404,0.8453962,0.05364488,,,,,
7789,	09/25/2022 12:23:32.948,248239.16,5320,5,25,-0.01000138,4.095745,-0.0409631,0.2227205,0.01477731,0.8453962,0.06116267,,-2.68685e-06,,,
7855,	09/25/2022 12:34:32.948,248899,5980,5,25,-0.01000136,4.085634,-0.0408619,0.2227205,0.01661057,0.8453962,0.06866183,,5.76849e-06,,,
7921,	09/25/2022 12:45:32.948,249559,6640,5,25,-0.01000151,4.075691,-0.0407631,0.2227205,0.01844386,0.8453962,0.07614274,,,,,0
7987,	09/25/2022 12:56:32.948,250219,7300,5,25,-0.01000142,4.065814,-0.0406639,0.2227205,0.02027715,0.8453962,0.08360544,,-3.20075e-05,,,0
8053,	09/25/2022 13:07:32.949,250879.161,7960,5,25,-0.01000141,4.05592,-0.0405649,0.2227205,0.02211045,0.8453962,0.09105022,,6.95432e-06,,0.188107,
8119,	09/25/2022 13:18:32.948,251539,8620,5,25,-0.01000135,4.04627,-0.0404682,0.2227205,0.02394373,0.8453962,0.09847712,,-4.58353e-06,,,
8185,	09/25/2022 13:29:32.948,252199,9280,5,25,-0.01000142,4.036596,-0.0403717,0.2227205,0.02577701,0.8453962,0.1058863,,-1.87289e-05,,,
8251,	09/25/2022 13:40:32.949,252859,9940.001,5,25,-0.01000146,4.027122,-0.0402771,0.2227205,0.02761032,0.8453962,0.1132782,,-2.86885e-05,,,
8317,	09/25/2022 13:51:32.948,253519,10600,5,25,-0.01000139,4.017694,-0.0401825,0.2227205,0.02944361,0.8453962,0.1206526,,-3.16084e-06,,,
8383,	09/25/2022 14:02:32.949,254179.161,11260,5,25,-0.01000129,4.00828,-0.040088,0.2227205,0.03127693,0.8453962,0.1280099,,-2.77382e-05,,,
8449,	09/25/2022 14:13:32.948,254839,11920,5,25,-0.01000134,3.999056,-0.0399959,0.2227205,0.03311013,0.8453962,0.1353496,,-2.94761e-05,,,
8515,	09/25/2022 14:24:32.948,255499,12580,5,25,-0.01000132,3.989917,-0.0399044,0.2227205,0.03494326,0.8453962,0.1426721,,-2.98715e-05,,,
8581,	09/25/2022 14:35:32.948,256159.16,13240,5,25,-0.01000135,3.980682,-0.0398122,0.2227205,0.03677636,0.8453962,0.1499777,,,,,
8647,	09/25/2022 14:46:32.948,256819.16,13900,5,25,-0.01000138,3.971851,-0.039724,0.2227205,0.03860948,0.8453962,0.1572666,,-7.98166e-06,,,
8713,	09/25/2022 14:57:32.948,257479,14560,5,25,-0.01000132,3.962699,-0.0396322,0.2227205,0.04044262,0.8453962,0.1645391,,-2.49326e-05,,,0
8779,	09/25/2022 15:08:32.948,258139,15220,5,25,-0.01000121,3.953748,-0.0395423,0.2227205,0.04227575,0.8453962,0.1717951,,,,,
8845,	09/25/2022 15:19:32.948,258799,15880,5,25,-0.01000131,3.944893,-0.0394541,0.2227205,0.04410892,0.8453962,0.179035,,-1.26834e-05,,,
8911,	09/25/2022 15:30:32.948,259459,16540,5,25,-0.01000137,3.936094,-0.0393663,0.2227205,0.0459422,0.8453962,0.1862592,,-2.8528e-05,,,
8977,	09/25/2022 15:41:32.949,260119,17200.001,5,25,-0.01000139,3.927413,-0.0392796,0.2227205,0.04777554,0.8453962,0.1934677,,,,,
9043,	09/25/2022 15:52:32.948,260779,17860,5,25,-0.01000138,3.918788,-0.0391933,0.2227205,0.04960887,0.8453962,0.2006602,,-2.70248e-05,,,
9109,	09/25/2022 16:03:32.949,261439.161,18520,5,25,-0.01000132,3.910213,-0.0391073,0.2227205,0.05144215,0.8453962,0.2078367,,-2.88861e-05,,,
9175,	09/25/2022 16:14:32.948,262099.16,19180,5,25,-0.01000136,3.901799,-0.0390233,0.2227205,0.05327542,0.8453962,0.2149976,,-9.87887e-07,,,
9241,	09/25/2022 16:25:32.949,262759,19840.001,5,25,-0.0100013,3.893384,-0.0389389,0.2227205,0.05510871,0.8453962,0.2221432,,-3.02253e-05,,,
9307,	09/25/2022 16:36:32.949,263419,20500.001,5,25,-0.01000147,3.885069,-0.0388564,0.2227205,0.056942,0.8453962,0.2292735,,-2.93178e-05,,,
9373,	09/25/2022 16:47:32.949,264079,21160.001,5,25,-0.01000127,3.87699,-0.0387748,0.2227205,0.0587753,0.8453962,0.2363886,,-3.79722e-05,,,
9439,	09/25/2022 16:58:32.948,264739,21820,5,25,-0.01000147,3.868949,-0.0386952,0.2227205,0.06060857,0.8453962,0.2434887,,3.51664e-06,,0,
9505,	09/25/2022 17:09:32.948,265399,22480,5,25,-0.01000145,3.860904,-0.0386146,0.2227205,0.06244186,0.8453962,0.250574,,-1.18939e-05,,0,4.42073
9571,	09/25/2022 17:20:32.949,266059,23140.001,5,25,-0.01000134,3.852944,-0.0385346,0.2227205,0.06427515,0.8453962,0.2576447,,-1.03528e-05,,,
9637,	09/25/2022 17:31:32.949,266719.161,23800,5,25,-0.01000132,3.845092,-0.038456,0.2227205,0.06610842,0.8453962,0.2647008,,,,,
9703,	09/25/2022 17:42:32.949,267379,24460.001,5,25,-0.01000141,3.837365,-0.0383791,0.2227205,0.06794168,0.8453962,0.2717426,,4.58372e-06,,0,
9769,	09/25/2022 17:53:32.949,268039.161,25120,5,25,-0.01000136,3.829606,-0.0383013,0.2227205,0.06977496,0.8453962,0.2787704,,-3.14915e-05,,0,
9835,	09/25/2022 18:04:32.948,268699.16,25780,5,25,-0.01000141,3.822107,-0.0382265,0.2227205,0.07160823,0.8453962,0.285784,,,,,
9901,	09/25/2022 18:15:32.948,269359,26440,5,25,-0.01000138,3.814591,-0.0381512,0.2227205,0.07344139,0.8453962,0.2927835,,-5.53207e-07,,,
9967,	09/25/2022 18:26:32.948,270019.16,27100,5,25,-0.01000127,3.807184,-0.0380767,0.2227205,0.07527454,0.8453962,0.2997693,,-1.03517e-05,,,
10033,	09/25/2022 18:37:32.949,270679,27760.001,5,25,-0.01000125,3.799677,-0.0380015,0.2227205,0.07710767,0.8453962,0.3067414,,4.89955e-06,,,
10099,	09/25/2022 18:48:32.948,271339.16,28420,5,25,-0.0100013,3.79235,-0.0379284,0.2227205,0.07894082,0.8453962,0.3137002,,-2.87256e-05,,0,
10165,	09/25/2022 18:59:32.948,271999,29080,5,25,-0.01000143,3.785057,-0.037856,0.2227205,0.08077395,0.8453962,0.3206455,,-2.55253e-05,,,
10231,	09/25/2022 19:10:32.949,272659.161,29740,5,25,-0.01000114,3.777711,-0.0377814,0.2227205,0.0826071,0.8453962,0.3275775,,-3.35854e-06,,,
10297,	09/25/2022 19:21:32.948,273319,30400,5,25,-0.01000138,3.770556,-0.0377108,0.2227205,0.08444022,0.8453962,0.334496,,-9.16698e-06,,,
10363,	09/25/2022 19:32:32.948,273979,31060,5,25,-0.01000131,3.763204,-0.037637,0.2227205,0.08627349,0.8453962,0.3414015,,6.36157e-06,,,
10429,	09/25/2022 19:43:32.948,274639,31720,5,25,-0.01000131,3.755737,-0.0375623,0.2227205,0.0881068,0.8453962,0.3482935,,-1.9123e-05,,,
10495,	09/25/2022 19:54:32.949,275299.161,32380,5,25,-0.01000139,3.748169,-0.0374869,0.2227205,0.08994009,0.8453962,0.3551719,,,,,
10561,	09/25/2022 20:05:32.948,275959,33040,5,25,-0.01000137,3.740706,-0.0374122,0.2227205,0.09177337,0.8453962,0.3620366,,-1.84139e-05,,0,
10627,	09/25/2022 20:16:32.949,276619,33700,5,25,-0.01000125,3.733498,-0.0373396,0.2227205,0.09360665,0.8453962,0.368888,,-1.73845e-06,,0,
10693,	09/25/2022 20:27:32.948,277279,34360,5,25,-0.01000128,3.726735,-0.0372721,0.2227205,0.09543993,0.8453962,0.3757262,,,,,
10759,	09/25/2022 20:38:32.949,277939.161,35020,5,25,-0.01000135,3.72015,-0.0372065,0.2227205,0.09727322,0.8453962,0.3825521,,7.27043e-06,,0,
10825,	09/25/2022 20:49:32.949,278599,35680.001,5,25,-0.01000136,3.713731,-0.0371424,0.2227205,0.0991065,0.8453962,0.3893663,,2.6867e-06,,,
10891,	09/25/2022 21:00:32.948,279259,36340,5,25,-0.0100014,3.707923,-0.0370844,0.2227205,0.1009398,0.8453962,0.3961694,,7.94208e-06,,,
10957,	09/25/2022 21:11:32.949,279919,37000.001,5,25,-0.0100013,3.702428,-0.0370291,0.2227205,0.102773,0.8453962,0.4029621,,-2.25618e-05,,,
11023,	09/25/2022 21:22:32.948,280579,37660,5,25,-0.01000135,3.697262,-0.0369776,0.2227205,0.1046063,0.8453962,0.4097451,,-2.44585e-05,,,
11089,	09/25/2022 21:33:32.948,281239,38320,5,25,-0.01000151,3.69246,-0.0369302,0.2227205,0.1064396,0.8453962,0.4165189,,-1.37098e-05,,,0
11155,	09/25/2022 21:44:32.949,281899.161,38980,5,25,-0.01000133,3.687637,-0.0368813,0.2227205,0.1082729,0.8453962,0.4232838,,-1.15377e-05,,,
11221,	09/25/2022 21:55:32.949,282559,39640.001,5,25,-0.01000138,3.683403,-0.0368391,0.2227205,0.1101062,0.8453962,0.4300404,,-1.97941e-05,,,
11287,	09/25/2022 22:06:32.948,283219,40300,5,25,-0.01000131,3.67915,-0.0367963,0.2227205,0.1119394,0.8453962,0.4367886,,-1.53694e-05,,,
11353,	09/25/2022 22:17:32.948,283879,40960,5,25,-0.01000136,3.675048,-0.0367555,0.2227205,0.1137725,0.8453962,0.4435291,,,,,
11419,	09/25/2022 22:28:32.948,284539,41620,5,25,-0.01000143,3.671092,-0.0367162,0.2227205,0.1156056,0.8453962,0.4502621,,8.61423e-06,,,
11485,	09/25/2022 22:39:32.948,285199.16,42280,5,25,-0.01000126,3.667324,-0.0366779,0.2227205,0.1174388,0.8453962,0.456988,,-2.34704e-05,,,0
11551,	09/25/2022 22:50:32.949,285859,42940,5,25,-0.01000133,3.663606,-0.0366409,0.2227205,0.1192719,0.8453962,0.4637071,,,,,
11617,	09/25/2022 23:01:32.949,286519,43600.001,5,25,-0.01000143,3.66007,-0.0366059,0.2227205,0.1211051,0.8453962,0.4704196,,1.31182e-05,,,0
11683,	09/25/2022 23:12:32.948,287179.16,44260,5,25,-0.01000139,3.65665,-0.0365716,0.2227205,0.1229382,0.8453962,0.4771257,,-1.64363e-05,,,
11749,	09/25/2022 23:23:32.948,287839,44920,5,25,-0.01000131,3.653242,-0.0365372,0.2227205,0.1247713,0.8453962,0.4838256,,,,,
11815,	09/25/2022 23:34:32.948,288499,45580,5,25,-0.01000141,3.649954,-0.0365047,0.2227205,0.1266045,0.8453962,0.4905194,,9.52197e-06,,,
11881,	09/25/2022 23:45:32.948,289159.16,46240,5,25,-0.01000137,3.646616,-0.0364712,0.2227205,0.1284378,0.8453962,0.4972076,,3.87213e-06,,,
11947,	09/25/2022 23:56:32.949,289819,46900.001,5,25,-0.01000143,3.643524,-0.0364405,0.2227205,0.1302711,0.8453962,0.5038902,,-1.18538e-06,,,
12013,	09/26/2022 00:07:32.949,290479,47560,5,25,-0.01000137,3.64046,-0.0364096,0.2227205,0.1321044,0.8453962,0.5105672,,-1.55681e-05,,,
12079,	09/26/2022 00:18:32.949,291139,48220.001,5,25,-0.01000135,3.637439,-0.0363793,0.2227205,0.1339377,0.8453962,0.5172386,,1.10642e-05,,,
12145,	09/26/2022 00:29:32.948,291799,48880,5,25,-0.0100014,3.634449,-0.0363496,0.2227205,0.135771,0.8453962,0.5239045,,9.36462e-06,,,
12211,	09/26/2022 00:40:32.948,292459,49540,5,25,-0.01000137,3.631536,-0.0363203,0.2227205,0.1376043,0.8453962,0.5305651,,-1.62001e-05,,0,
12277,	09/26/2022 00:51:32.949,293119,50200.001,5,25,-0.01000136,3.628633,-0.0362913,0.2227205,0.1394376,0.8453962,0.5372202,,-1.64767e-05,,,
12343,	09/26/2022 01:02:32.948,293779,50860,5,25,-0.01000136,3.625695,-0.0362619,0.2227205,0.1412709,0.8453962,0.54387,,1.64382e-05,,0,
12409,	09/26/2022 01:13:32.948,294439,51520,5,25,-0.01000138,3.622943,-0.0362344,0.2227205,0.1431042,0.8453962,0.5505145,,,,0,
12475,	09/26/2022 01:24:32.948,295099.16,52180,5,25,-0.01000133,3.620062,-0.0362054,0.2227205,0.1449375,0.8453962,0.5571538,,-1.22878e-05,,,
12541,	09/26/2022 01:35:32.949,295759.161,52840,5,25,-0.01000123,3.617156,-0.036176,0.2227205,0.1467708,0.8453962,0.5637876,,-8.85015e-06,,,
12607,	09/26/2022 01:46:32.948,296419,53500,5,25,-0.01000143,3.614193,-0.0361471,0.2227205,0.148604,0.8453962,0.5704158,,,,,
12673,	09/26/2022 01:57:32.948,297079,54160,5,25,-0.01000137,3.611232,-0.0361173,0.2227205,0.1504372,0.8453962,0.5770383,,7.42879e-06,,0,
12739,	09/26/2022 02:08:32.948,297739.16,54820,5,25,-0.01000132,3.608098,-0.0360857,0.2227205,0.1522703,0.8453962,0.5836552,,-2.77396e-05,,,
12805,	09/26/2022 02:19:32.948,298399.16,55480,5,25,-0.01000128,3.604929,-0.0360539,0.2227205,0.1541035,0.8453962,0.5902663,,-9.83789e-06,,,
12871,	09/26/2022 02:30:32.948,299059,56140,5,25,-0.01000125,3.601473,-0.0360192,0.2227205,0.1559366,0.8453962,0.5968715,,5.13659e-06,,,
12937,	09/26/2022 02:41:32.948,299719,56800,5,25,-0.01000123,3.598118,-0.0359856,0.2227205,0.1577698,0.8453962,0.6034705,,1.15772e-05,,,
13003,	09/26/2022 02:52:32.948,300379,57460,5,25,-0.0100013,3.594418,-0.0359489,0.2227205,0.1596029,0.8453962,0.610063,,-2.65939e-05,,,
13069,	09/26/2022 03:03:32.948,301039,58120,5,25,-0.01000132,3.590459,-0.0359093,0.2227205,0.1614361,0.8453962,0.6166483,,-9.12792e-06,,,
13135,	09/26/2022 03:14:32.948,301699,58780,5,25,-0.01000126,3.586247,-0.035867,0.2227205,0.1632692,0.8453962,0.6232262,,-3.99076e-06,,,
13201,	09/26/2022 03:25:32.948,302359,59440,5,25,-0.01000131,3.581819,-0.0358229,0.2227205,0.1651023,0.8453962,0.6297961,,-2.02713e-05,,,
13267,	09/26/2022 03:36:32.948,303019,60100,5,25,-0.01000137,3.577319,-0.0357781,0.2227205,0.1669355,0.8453962,0.636358,,,,,
13333,	09/26/2022 03:47:32.948,303679,60760,5,25,-0.01000145,3.57283,-0.0357335,0.2227205,0.1687686,0.8453962,0.6429117,,-3.12149e-06,,0,
13399,	09/26/2022 03:58:32.949,304339.161,61420,5,25,-0.01000121,3.568242,-0.0356867,0.2227205,0.1706018,0.8453962,0.6494571,,1.27222e-05,,,
13465,	09/26/2022 04:09:32.948,304999,62080,5,25,-0.01000119,3.563414,-0.0356384,0.2227205,0.1724349,0.8453962,0.6559938,,,,,
13531,	09/26/2022 04:20:32.948,305659,62740,5,25,-0.01000138,3.558609,-0.035591,0.2227205,0.1742681,0.8453962,0.6625218,,-9.24547e-06,,,
13597,	09/26/2022 04:31:32.948,306319,63400,5,25,-0.01000131,3.553631,-0.035541,0.2227205,0.1761012,0.8453962,0.6690408,,6.00635e-06,,,
13663,	09/26/2022 04:42:32.948,306979,64060,5,25,-0.0100013,3.548652,-0.0354911,0.2227205,0.1779343,0.8453962,0.6755506,,,,,
13729,	09/26/2022 04:53:32.948,307639.16,64720,5,25,-0.01000138,3.543742,-0.0354423,0.2227205,0.1797674,0.8453962,0.6820514,,-7.42842e-06,,,
13795,	09/26/2022 05:04:32.949,308299,65380.001,5,25,-0.01000134,3.538859,-0.0353933,0.2227205,0.1816005,0.8453962,0.6885432,,7.11261e-07,,,
13861,	09/26/2022 05:15:32.949,308959,66040,5,25,-0.01000142,3.533907,-0.0353441,0.2227205,0.1834337,0.8453962,0.695026,,1.05887e-05,,,0
13927,	09/26/2022 05:26:32.948,309619,66700,5,25,-0.01000139,3.528976,-0.0352947,0.2227205,0.1852668,0.8453962,0.7014996,,-2.29976e-05,,,
13993,	09/26/2022 05:37:32.948,310279,67360,5,25,-0.01000132,3.523705,-0.0352417,0.2227205,0.1870999,0.8453962,0.707964,,-2.00737e-05,,,
14059,	09/26/2022 05:48:32.948,310939,68020,5,25,-0.01000132,3.518454,-0.0351892,0.2227205,0.188933,0.8453962,0.7144186,,8.65274e-06,,,
14125,	09/26/2022 05:59:32.948,311599.16,68680,5,25,-0.01000126,3.512852,-0.0351329,0.2227205,0.1907662,0.8453962,0.7208632,,5.45277e-06,,0,
14191,	09/26/2022 06:10:32.948,312259.16,69340,5,25,-0.01000125,3.507081,-0.0350752,0.2227205,0.1925993,0.8453962,0.7272972,,-9.24585e-06,,,
14257,	09/26/2022 06:21:32.949,312919,70000.001,5,25,-0.0100013,3.501131,-0.0350159,0.2227205,0.1944324,0.8453962,0.7337206,,-2.05876e-05,,0,
14323,	09/26/2022 06:32:32.949,313579,70660,5,25,-0.0100013,3.495084,-0.0349554,0.2227205,0.1962655,0.8453962,0.7401332,,,,,
14389,	09/26/2022 06:43:32.948,314239.16,71320,5,25,-0.0100012,3.489073,-0.0348949,0.2227205,0.1980987,0.8453962,0.7465349,,1.08658e-05,,,0
14455,	09/26/2022 06:54:32.949,314899,71980.001,5,25,-0.01000127,3.482767,-0.0348321,0.2227205,0.1999318,0.8453962,0.7529253,,9.91756e-06,,,
14521,	09/26/2022 07:05:32.948,315559,72640,5,25,-0.01000128,3.476212,-0.0347666,0.2227205,0.201765,0.8453962,0.7593037,,,,0,
14587,	09/26/2022 07:16:32.948,316219,73300,5,25,-0.01000131,3.468895,-0.0346935,0.2227205,0.2035981,0.8453962,0.7656693,,-1.56873e-05,,,
14653,	09/26/2022 07:27:32.949,316879,73960.001,5,25,-0.01000127,3.460956,-0.034614,0.2227205,0.2054312,0.8453962,0.7720208,,-2.62741e-05,,,
14719,	09/26/2022 07:38:32.948,317539,74620,5,25,-0.01000113,3.452758,-0.0345315,0.2227205,0.2072643,0.8453962,0.7783574,,-2.63955e-05,,0,0
14785,	09/26/2022 07:49:32.949,318199,75280.001,5,25,-0.01000123,3.444871,-0.0344529,0.2227205,0.2090974,0.8453962,0.7846794,,-1.41849e-05,,,
14851,	09/26/2022 08:00:32.949,318859.161,75940,5,25,-0.01000117,3.437195,-0.034376,0.2227205,0.2109306,0.8453962,0.7909872,,7.54727e-06,,,
14917,	09/26/2022 08:11:32.949,319519,76600.001,5,25,-0.01000115,3.429107,-0.034295,0.2227205,0.2127637,0.8453962,0.797281,,-9.48254e-07,,0.22315,
14983,	09/26/2022 08:22:32.949,320179,77260.001,5,25,-0.01000122,3.419738,-0.0342016,0.2227205,0.2145969,0.8453962,0.8035589,,-3.60378e-05,,,
15049,	09/26/2022 08:33:32.948,320839.16,77920,5,25,-0.01000126,3.408256,-0.0340869,0.2227205,0.2164299,0.8453962,0.8098177,,-2.93183e-05,,,
15115,	09/26/2022 08:44:32.948,321499,78580,5,25,-0.01000119,3.39335,-0.0339375,0.2227205,0.2182631,0.8453962,0.8160525,,-1.2289e-05,,,
15181,	09/26/2022 08:55:32.948,322159.16,79240,5,25,-0.01000136,3.372224,-0.0337268,0.2227205,0.2200962,0.8453962,0.8222546,,,,,
15247,	09/26/2022 09:06:32.948,322819.16,79900,5,25,-0.01000125,3.342174,-0.0334259,0.2227205,0.2219294,0.8453962,0.8284103,,-6.42874e-05,,,
15313,	09/26/2022 09:17:32.948,323479,80560,5,25,-0.0100012,3.303449,-0.0330385,0.2227205,0.2237625,0.8453962,0.8345024,,-7.65408e-05,,,
15379,	09/26/2022 09:28:32.948,324139,81220,5,25,-0.01000132,3.256686,-0.0325712,0.2227205,0.2255956,0.8453962,0.8405163,,-7.16002e-05,,,
15445,	09/26/2022 09:39:32.948,324799,81880,5,25,-0.01000123,3.199872,-0.0320027,0.2227205,0.2274288,0.8453962,0.846436,,-0.000110914,,,33.5279
15511,	09/26/2022 09:50:32.948,325459,82540,5,25,-0.01000121,3.128519,-0.031289,0.2227205,0.2292619,0.8453962,0.8522393,,-0.000139519,,0.0227002,
15577,	09/26/2022 10:01:32.948,326119,83200,5,25,-0.01000126,3.032459,-0.0303284,0.2227205,0.231095,0.8453962,0.8578913,,-0.000188765,,0.0162937,
15643,	09/26/2022 10:18:59.752,327166,270.0002,5,27,0.00999951,3.124216,0.0312406,0.2234703,0.2315859,0.8477191,0.859372,,0.000164884,,,
15709,	09/26/2022 10:29:59.752,327826,930.0002,5,27,0.009999402,3.208474,0.0320828,0.2253031,0.2315859,0.8535278,0.859372,,9.37035e-05,,,
15775,	09/26/2022 10:40:59.752,328486,1590,5,27,0.009999443,3.269601,0.0326942,0.2271359,0.2315859,0.8594667,0.859372,,9.27374e-05,,,
15841,	09/26/2022 10:51:59.752,329146,2250,5,27,0.009999435,3.318758,0.0331857,0.2289687,0.2315859,0.8655059,0.859372,,5.86327e-05,,,
15907,	09/26/2022 11:02:59.752,329806,2910,5,27,0.009999517,3.359754,0.0335959,0.2308015,0.2315859,0.8716272,0.859372,,4.77671e-05,,,
15973,	09/26/2022 11:13:59.752,330465.964,3570,5,27,0.00999951,3.394746,0.0339458,0.2326343,0.2315859,0.8778179,0.859372,,3.10571e-05,,,
16039,	09/26/2022 11:24:59.752,331125.964,4230,5,27,0.009999413,3.424914,0.0342471,0.2344671,0.2315859,0.8840681,0.859372,,,,0,
16105,	09/26/2022 11:35:59.753,331786,4890,5,27,0.009999406,3.448056,0.0344785,0.2362999,0.2315859,0.890368,0.859372,,4.3111e-05,,,
16171,	09/26/2022 11:46:59.752,332446,5550,5,27,0.009999383,3.459762,0.0345955,0.2381327,0.2315859,0.8966993,0.859372,,2.05084e-05,,0,
16237,	09/26/2022 11:57:59.753,333106,6210.001,5,27,0.009999402,3.467389,0.0346718,0.2399654,0.2315859,0.9030474,0.859372,,3.04249e-06,,,
16303,	09/26/2022 12:08:59.752,333766,6870,5,27,0.00999935,3.47397,0.0347374,0.2417982,0.2315859,0.9094082,0.859372,,1.08665e-05,,,
16369,	09/26/2022 12:19:59.752,334426,7530,5,27,0.009999394,3.480166,0.0347996,0.243631,0.2315859,0.9157809,0.859372,,1.10636e-05,,,0
16435,	09/26/2022 12:30:59.753,335086,8190.001,5,27,0.009999458,3.486364,0.0348618,0.2454638,0.2315859,0.9221651,0.859372,,4.30686e-06,,,
16501,	09/26/2022 12:41:59.752,335746,8850,5,27,0.009999391,3.492762,0.0349255,0.2472966,0.2315859,0.9285609,0.859372,,-6.87472e-06,,0,
16567,	09/26/2022 12:52:59.752,336406,9510,5,27,0.009999488,3.49921,0.0349903,0.2491294,0.2315859,0.9349685,0.859372,,-3.79323e-06,,,
16633,	09/26/2022 13:03:59.752,337066,10170,5,27,0.009999506,3.505852,0.0350568,0.2509621,0.2315859,0.9413878,0.859372,,1.65939e-06,,0,
16699,	09/26/2022 13:14:59.752,337726,10830,5,27,0.009999353,3.512167,0.0351194,0.2527949,0.2315859,0.9478189,0.859372,,,,,
16765,	09/26/2022 13:25:59.752,338386,11490,5,27,0.009999432,3.518384,0.0351818,0.2546277,0.2315859,0.9542615,0.859372,,1.8334e-05,,,
16831,	09/26/2022 13:36:59.752,339046,12150,5,27,0.009999353,3.524379,0.0352415,0.2564605,0.2315859,0.9607153,0.859372,,2.32731e-05,,,
16897,	09/26/2022 13:47:59.752,339706,12810,5,27,0.009999339,3.530602,0.0353037,0.2582933,0.2315859,0.9671806,0.859372,,,,,
16963,	09/26/2022 13:58:59.752,340366,13470,5,27,0.00999948,3.537008,0.0353682,0.2601261,0.2315859,0.9736574,0.859372,,1.81758e-06,,,
17029,	09/26/2022 14:09:59.752,341025.964,14130,5,27,0.009999391,3.543469,0.0354325,0.2619588,0.2315859,0.9801461,0.859372,,-7.70488e-06,,0,
17095,	09/26/2022 14:20:59.752,341685.964,14790,5,27,0.009999398,3.549848,0.0354963,0.2637916,0.2315859,0.9866464,0.859372,,,,,
17161,	09/26/2022 14:31:59.753,342346,15450.001,5,27,0.009999458,3.556077,0.0355588,0.2656244,0.2315859,0.9931585,0.859372,,1.38304e-06,,,
17227,	09/26/2022 14:42:59.752,343006,16110,5,27,0.009999454,3.561999,0.035618,0.2674572,0.2315859,0.9996817,0.859372,,-1.16957e-05,,,
17293,	09/26/2022 14:53:59.752,343665.964,16770,5,27,0.009999551,3.567919,0.0356776,0.26929,0.2315859,1.006215,0.859372,,-4.10961e-06,,0,0
17359,	09/26/2022 15:04:59.752,344325.964,17430,5,27,0.009999491,3.573555,0.0357337,0.2711228,0.2315859,1.01276,0.859372,,1.39084e-05,,,
17425,	09/26/2022 15:15:59.753,344986,18090.001,5,27,0.009999577,3.579249,0.035791,0.2729556,0.2315859,1.019315,0.859372,,-1.08264e-05,,,
17491,	09/26/2022 15:26:59.752,345646,18750,5,27,0.009999424,3.584884,0.0358468,0.2747884,0.2315859,1.02588,0.859372,,2.1574e-05,,,
17557,	09/26/2022 15:37:59.752,346306,19410,5,27,0.009999249,3.590406,0.0359014,0.2766212,0.2315859,1.032456,0.859372,,1.26038e-05,,,
17623,	09/26/2022 15:48:59.753,346965.965,20070,5,27,0.00999954,3.595338,0.0359517,0.278454,0.2315859,1.039041,0.859372,,-1.5409e-05,,,
17689,	09/26/2022 15:59:59.752,347626,20730,5,27,0.009999346,3.599864,0.0359963,0.2802868,0.2315859,1.045635,0.859372,,-6.12444e-06,,,
17755,	09/26/2022 16:10:59.753,348286,21390.001,5,27,0.00999951,3.60417,0.0360399,0.2821197,0.2315859,1.052237,0.859372,,,,,
17821,	09/26/2022 16:21:59.752,348946,22050,5,27,0.00999938,3.60827,0.0360805,0.2839525,0.2315859,1.058846,0.859372,,1.57268e-05,,,
17887,	09/26/2022 16:32:59.752,349605.964,22710,5,27,0.00999932,3.612318,0.0361207,0.2857853,0.2315859,1.065463,0.859372,,-6.3219e-07,,,
17953,	09/26/2022 16:43:59.752,350266,23370,5,27,0.009999398,3.616104,0.0361589,0.2876181,0.2315859,1.072087,0.859372,,,,,
18019,	09/26/2022 16:54:59.752,350926,24030,5,27,0.009999488,3.619582,0.036194,0.2894509,0.2315859,1.078718,0.859372,,1.80979e-05,,,
18085,	09/26/2022 17:05:59.752,351586,24690,5,27,0.00999951,3.622657,0.0362248,0.2912837,0.2315859,1.085354,0.859372,,9.32496e-06,,,
18151,	09/26/2022 17:16:59.752,352246,25350,5,27,0.009999454,3.625643,0.0362545,0.2931165,0.2315859,1.091997,0.859372,,1.07073e-05,,,
18217,	09/26/2022 17:27:59.752,352905.964,26010,5,27,0.009999357,3.628439,0.0362821,0.2949493,0.2315859,1.098645,0.859372,,-1.67128e-05,,,
18283,	09/26/2022 17:38:59.752,353565.964,26670,5,27,0.009999342,3.631215,0.0363098,0.2967821,0.2315859,1.105298,0.859372,,2.30375e-05,,,
18349,	09/26/2022 17:49:59.753,354225.965,27330,5,27,0.009999465,3.633958,0.0363376,0.2986149,0.2315859,1.111956,0.859372,,1.19723e-05,,,
18415,	09/26/2022 18:00:59.753,354886,27990.001,5,27,0.009999469,3.6367,0.0363651,0.3004477,0.2315859,1.118619,0.859372,,-5.76883e-06,,,
18481,	09/26/2022 18:11:59.753,355545.965,28650,5,27,0.009999517,3.639409,0.0363923,0.3022805,0.2315859,1.125286,0.859372,,-9.79911e-06,,,
18547,	09/26/2022 18:22:59.752,356206,29310,5,27,0.009999339,3.642091,0.0364185,0.3041133,0.2315859,1.131959,0.859372,,-6.36115e-06,,,
18613,	09/26/2022 18:33:59.752,356866,29970,5,27,0.009999339,3.644726,0.0364449,0.3059461,0.2315859,1.138637,0.859372,,,,,
18679,	09/26/2022 18:44:59.752,357525.964,30630,5,27,0.009999331,3.647348,0.036471,0.3077789,0.2315859,1.145319,0.859372,,1.2723e-05,,,
18745,	09/26/2022 18:55:59.752,358186,31290,5,27,0.00999932,3.649848,0.036496,0.3096117,0.2315859,1.152006,0.859372,,1.33551e-05,,,
18811,	09/26/2022 19:06:59.752,358846,31950,5,27,0.009999491,3.652485,0.036523,0.3114445,0.2315859,1.158698,0.859372,,,,,
18877,	09/26/2022 19:17:59.752,359506,32610,5,27,0.009999476,3.655099,0.0365491,0.3132773,0.2315859,1.165395,0.859372,,-4.7415e-07,,,
18943,	09/26/2022 19:28:59.752,360166,33270,5,27,0.009999514,3.657817,0.0365764,0.3151101,0.2315859,1.172096,0.859372,,-3.63491e-06,,,
19009,	09/26/2022 19:39:59.753,360826,33930.001,5,27,0.009999357,3.660569,0.0366033,0.3169429,0.2315859,1.178803,0.859372,,,,0,
19075,	09/26/2022 19:50:59.752,361486,34590,5,27,0.009999417,3.663502,0.0366329,0.3187757,0.2315859,1.185515,0.859372,,2.17319e-06,,,
19141,	09/26/2022 20:01:59.752,362146,35250,5,27,0.009999428,3.666316,0.0366611,0.3206086,0.2315859,1.192232,0.859372,,-5.68985e-06,,0,
19207,	09/26/2022 20:12:59.752,362806,35910,5,27,0.009999506,3.669216,0.0366903,0.3224414,0.2315859,1.198954,0.859372,,-1.2644e-05,,,
19273,	09/26/2022 20:23:59.753,363466,36570.001,5,27,0.009999454,3.671965,0.0367176,0.3242742,0.2315859,1.205682,0.859372,,1.01943e-05,,,
19339,	09/26/2022 20:34:59.752,364126,37230,5,27,0.009999413,3.675,0.0367478,0.326107,0.2315859,1.212415,0.859372,,1.58435e-05,,,
19405,	09/26/2022 20:45:59.753,364786,37890.001,5,27,0.009999353,3.678145,0.0367791,0.3279398,0.2315859,1.219153,0.859372,,2.82519e-05,,0,
19471,	09/26/2022 20:56:59.753,365446,38550.001,5,27,0.00999935,3.68132,0.0368108,0.3297727,0.2315859,1.225898,0.859372,,-1.22489e-05,,,
19537,	09/26/2022 21:07:59.752,366106,39210,5,27,0.009999391,3.684652,0.0368443,0.3316055,0.2315859,1.232648,0.859372,,-2.02686e-05,,,
19603,	09/26/2022 21:18:59.752,366765.964,39870,5,27,0.009999365,3.688025,0.0368779,0.3334383,0.2315859,1.239405,0.859372,,4.93866e-06,,,
19669,	09/26/2022 21:29:59.752,367426,40530,5,27,0.009999428,3.691616,0.036914,0.3352711,0.2315859,1.246168,0.859372,,,,,
19735,	09/26/2022 21:40:59.752,368085.964,41190,5,27,0.009999454,3.695234,0.0369503,0.3371039,0.2315859,1.252937,0.859372,,-5.8478e-06,,,0
19801,	09/26/2022 21:51:59.752,368746,41850,5,27,0.009999461,3.699068,0.0369887,0.3389367,0.2315859,1.259713,0.859372,,2.11392e-05,,,
19867,	09/26/2022 22:02:59.752,369406,42510,5,27,0.009999372,3.702935,0.037027,0.3407696,0.2315859,1.266497,0.859372,,,,,
19933,	09/26/2022 22:13:59.753,370066,43170.001,5,27,0.009999406,3.707224,0.03707,0.3426024,0.2315859,1.273287,0.859372,,-1.47777e-05,,,
19999,	09/26/2022 22:24:59.752,370726,43830,5,27,0.009999245,3.711498,0.0371122,0.3444352,0.2315859,1.280086,0.859372,,-5.80839e-06,,,
20065,	09/26/2022 22:35:59.752,371386,44490,5,27,0.009999357,3.715997,0.0371576,0.346268,0.2315859,1.286892,0.859372,,-1.4106e-05,,,
20131,	09/26/2022 22:46:59.752,372045.964,45150,5,27,0.00999935,3.720704,0.0372046,0.3481008,0.2315859,1.293707,0.859372,,2.72223e-05,,,
20197,	09/26/2022 22:57:59.752,372705.964,45810,5,27,0.009999573,3.725657,0.037255,0.3499336,0.2315859,1.300531,0.859372,,-1.46187e-06,,,
20263,	09/26/2022 23:08:59.752,373366,46470,5,27,0.009999376,3.730928,0.037307,0.3517664,0.2315859,1.307364,0.859372,,-6.95369e-06,,0,
20329,	09/26/2022 23:19:59.753,374025.965,47130,5,27,0.009999435,3.736417,0.0373621,0.3535992,0.2315859,1.314206,0.859372,,3.34295e-05,,,
20395,	09/26/2022 23:30:59.752,374686,47790,5,27,0.009999428,3.74228,0.0374207,0.355432,0.2315859,1.32106,0.859372,,2.48929e-06,,,
20461,	09/26/2022 23:41:59.752,375346,48450,5,27,0.009999406,3.748524,0.037483,0.3572648,0.2315859,1.327924,0.859372,,1.46204e-06,,,
20527,	09/26/2022 23:52:59.752,376006,49110,5,27,0.009999406,3.75485,0.0375463,0.3590977,0.2315859,1.3348,0.859372,,,,,
20593,	09/27/2022 00:03:59.752,376665.964,49770,5,27,0.009999212,3.761712,0.0376142,0.3609305,0.2315859,1.341689,0.859372,,2.93971e-05,,,
20659,	09/27/2022 00:14:59.752,377325.964,50430,5,27,0.009999365,3.768839,0.037686,0.3627633,0.2315859,1.34859,0.859372,,-1.22492e-06,,0,
20725,	09/27/2022 00:25:59.753,377986,51090.001,5,27,0.009999357,3.77607,0.0377583,0.3645961,0.2315859,1.355504,0.859372,,,,,
20791,	09/27/2022 00:36:59.753,378645.965,51750,5,27,0.009999283,3.782979,0.0378271,0.3664289,0.2315859,1.362431,0.859372,,2.0427e-05,,0,
20857,	09/27/2022 00:47:59.753,379305.965,52410,5,27,0.009999301,3.78998,0.0378972,0.3682618,0.2315859,1.369371,0.859372,,2.39049e-05,,,
20923,	09/27/2022 00:58:59.752,379966,53070,5,27,0.009999335,3.796976,0.0379672,0.3700946,0.2315859,1.376324,0.859372,,,,,
20989,	09/27/2022 01:09:59.753,380626,53730.001,5,27,0.009999357,3.803866,0.0380362,0.3719274,0.2315859,1.383289,0.859372,,-1.97564e-06,,,
21055,	09/27/2022 01:20:59.752,381285.964,54390,5,27,0.009999324,3.810734,0.0381048,0.3737602,0.2315859,1.390267,0.859372,,-1.03122e-05,,0,0
21121,	09/27/2022 01:31:59.753,381945.965,55050,5,27,0.009999357,3.817628,0.0381738,0.375593,0.2315859,1.397258,0.859372,,9.99717e-06,,,
21187,	09/27/2022 01:42:59.752,382606,55710,5,27,0.009999298,3.824644,0.0382438,0.3774258,0.2315859,1.404261,0.859372,,1.89268e-05,,,
21253,	09/27/2022 01:53:59.753,383266,56370.001,5,27,0.009999387,3.831744,0.0383151,0.3792586,0.2315859,1.411277,0.859372,,-8.57422e-06,,,
21319,	09/27/2022 02:04:59.753,383925.965,57030,5,27,0.009999357,3.83896,0.0383871,0.3810914,0.2315859,1.418307,0.859372,,3.06617e-05,,0,
21385,	09/27/2022 02:15:59.752,384586,57690,5,27,0.009999417,3.846261,0.0384604,0.3829243,0.2315859,1.425349,0.859372,,,,,
21451,	09/27/2022 02:26:59.752,385245.964,58350,5,27,0.009999275,3.853645,0.0385337,0.3847571,0.2315859,1.432405,0.859372,,-7.31024e-06,,,
21517,	09/27/2022 02:37:59.753,385906,59010.001,5,27,0.009999406,3.86121,0.0386098,0.3865899,0.2315859,1.439475,0.859372,,-6.0059e-06,,,0
21583,	09/27/2022 02:48:59.753,386566,59670.001,5,27,0.009999394,3.868816,0.0386858,0.3884227,0.2315859,1.446559,0.859372,,,,,
21649,	09/27/2022 02:59:59.752,387226,60330,5,27,0.009999428,3.876507,0.0387629,0.3902555,0.2315859,1.453656,0.859372,,-8.53407e-06,,,
21715,	09/27/2022 03:10:59.753,387886,60990,5,27,0.009999353,3.884278,0.0388403,0.3920884,0.2315859,1.460768,0.859372,,-4.1093e-06,,,
21781,	09/27/2022 03:21:59.752,388546,61650,5,27,0.009999346,3.892114,0.0389186,0.3939212,0.2315859,1.467894,0.859372,,,,,
21847,	09/27/2022 03:32:59.752,389206,62310,5,27,0.009999372,3.89989,0.0389965,0.395754,0.2315859,1.475035,0.859372,,3.16495e-05,,,
21913,	09/27/2022 03:43:59.753,389866,62970.001,5,27,0.009999432,3.907927,0.0390771,0.3975869,0.2315859,1.48219,0.859372,,2.74217e-05,,,
21979,	09/27/2022 03:54:59.752,390526,63630,5,27,0.009999212,3.915979,0.0391567,0.3994196,0.2315859,1.489361,0.859372,,1.88091e-05,,,
22045,	09/27/2022 04:05:59.752,391185.964,64290,5,27,0.00999935,3.924191,0.0392394,0.4012524,0.2315859,1.496545,0.859372,,-5.3341e-06,,,
22111,	09/27/2022 04:16:59.753,391846,64950.001,5,27,0.00999935,3.932413,0.0393216,0.4030852,0.2315859,1.503745,0.859372,,2.65526e-05,,,
22177,	09/27/2022 04:27:59.752,392506,65610,5,27,0.009999417,3.940686,0.0394046,0.404918,0.2315859,1.51096,0.859372,,-3.99076e-06,,,
22243,	09/27/2022 04:38:59.753,393165.965,66270,5,27,0.009999368,3.949111,0.0394886,0.4067509,0.2315859,1.518191,0.859372,,-8.65331e-06,,0,
22309,	09/27/2022 04:49:59.752,393826,66930,5,27,0.009999253,3.957475,0.0395718,0.4085837,0.2315859,1.525437,0.859372,,2.09011e-05,,0.217928,
22375,	09/27/2022 05:00:59.752,394485.964,67590,5,27,0.009999365,3.966115,0.0396586,0.4104165,0.2315859,1.532698,0.859372,,2.53256e-05,,,
22441,	09/27/2022 05:11:59.752,395145.964,68250,5,27,0.009999398,3.974573,0.0397433,0.4122493,0.2315859,1.539974,0.859372,,,,,
22507,	09/27/2022 05:22:59.753,395806,68910.001,5,27,0.009999417,3.98314,0.0398291,0.4140821,0.2315859,1.547267,0.859372,,-3.27932e-06,,,
22573,	09/27/2022 05:33:59.752,396466,69570,5,27,0.009999372,3.991754,0.039915,0.4159149,0.2315859,1.554575,0.859372,,2.70659e-05,,0,
22639,	09/27/2022 05:44:59.752,397126,70230,5,27,0.009999353,4.000414,0.0400016,0.4177478,0.2315859,1.561899,0.859372,,,,,
22705,	09/27/2022 05:55:59.753,397786,70890.001,5,27,0.009999305,4.009097,0.0400882,0.4195806,0.2315859,1.569239,0.859372,,7.5864e-06,,,
22771,	09/27/2022 06:06:59.752,398446,71550,5,27,0.009999368,4.017771,0.0401752,0.4214134,0.2315859,1.576594,0.859372,,-1.44608e-05,,,
22837,	09/27/2022 06:17:59.752,399105.964,72210,5,27,0.00999932,4.026488,0.0402621,0.4232462,0.2315859,1.583966,0.859372,,-9.16751e-06,,,
22903,	09/27/2022 06:28:59.753,399765.965,72870,5,27,0.009999309,4.03538,0.040351,0.425079,0.2315859,1.591354,0.859372,,1.31974e-05,,,
22969,	09/27/2022 06:39:59.752,400425.964,73530,5,27,0.009999372,4.044356,0.040441,0.4269118,0.2315859,1.598759,0.859372,,2.837e-05,,,
23035,	09/27/2022 06:50:59.752,401086,74190,5,27,0.009999324,4.053488,0.0405321,0.4287446,0.2315859,1.606179,0.859372,,2.41829e-05,,,
23101,	09/27/2022 07:01:59.752,401746,74850,5,27,0.009999342,4.06252,0.0406225,0.4305774,0.2315859,1.613617,0.859372,,5.21565e-06,,,
23167,	09/27/2022 07:12:59.752,402406,75510,5,27,0.009999305,4.071621,0.0407134,0.4324102,0.2315859,1.621071,0.859372,,-1.33545e-05,,,
23233,	09/27/2022 07:23:59.752,403066,76170,5,27,0.009999357,4.080723,0.0408046,0.434243,0.2315859,1.628541,0.859372,,-9.3248e-06,,,
23299,	09/27/2022 07:34:59.752,403726,76830,5,27,0.009999286,4.089778,0.0408949,0.4360758,0.2315859,1.636029,0.859372,,,,,
23365,	09/27/2022 07:45:59.752,404385.964,77490,5,27,0.009999294,4.099081,0.0409879,0.4379086,0.2315859,1.643534,0.859372,,3.41391e-05,,,
23431,	09/27/2022 07:56:59.752,405046,78150,5,27,0.009999238,4.108491,0.0410818,0.4397414,0.2315859,1.651055,0.859372,,1.944e-05,,0,
23497,	09/27/2022 08:07:59.753,405706,78810.001,5,27,0.009999342,4.118031,0.0411776,0.4415742,0.2315859,1.658594,0.859372,,,,,
23563,	09/27/2022 08:18:59.752,406365.964,79470,5,27,0.009999223,4.127196,0.0412688,0.4434071,0.2315859,1.66615,0.859372,,-6.48059e-06,,,
23629,	09/27/2022 08:29:59.752,407026,80130,5,27,0.00999938,4.137052,0.041368,0.4452399,0.2315859,1.673724,0.859372,,1.9755e-05,,,
23695,	09/27/2022 08:40:59.752,407686,80790,5,27,0.009999398,4.146688,0.0414644,0.4470728,0.2315859,1.681315,0.859372,,,,,
23761,	09/27/2022 08:51:59.752,408345.964,81450,5,27,0.009999409,4.156317,0.0415607,0.4489056,0.2315859,1.688924,0.859372,,9.08796e-06,,,
23827,	09/27/2022 09:02:59.752,409005.964,82110,5,27,0.009999309,4.166123,0.0416584,0.4507384,0.2315859,1.69655,0.859372,,5.2949e-06,,,0
23893,	09/27/2022 09:13:59.752,409666,82770,5,27,0.009999458,4.17592,0.0417569,0.4525712,0.2315859,1.704195,0.859372,,1.64369e-05,,,
23959,	09/27/2022 09:24:59.752,410326,83430,5,27,0.009999231,4.185673,0.0418535,0.454404,0.2315859,1.711857,0.859372,,2.39444e-05,,,
24025,	09/27/2022 09:35:59.752,410985.964,84090,5,27,0.009999268,4.195649,0.0419534,0.4562368,0.2315859,1.719538,0.859372,,1.87292e-05,,,
24091,	09/27/2022 09:58:57.413,412364,510.0001,6,30,-0.2000234,3.967685,-0.79363,0,0.02833115,0,0.1147266,,-0.00027984,,0.18408,5.47406
24157,	09/27/2022 10:31:57.413,414344,2490,6,30,-0.2000219,3.560704,-0.712219,0,0.1383249,0,0.5247471,,-0.000109112,,0.502689,
24223,	09/27/2022 11:04:42.958,416309,540.0002,6,31,0,3.382628,0,0,0.2175166,0,0.797515,,4.26739e-05,,,
24289,	09/27/2022 11:37:42.958,418289,2520,6,31,0,3.416706,0,0,0.2175166,0,0.797515,,3.87226e-06,,0,
24326,	09/27/2022 11:55:42.960,419369,3600,6,31,0,3.422359,0,0,0.2175166,0,0.797515,,-1.07869e-05,0.246016,0,0